TimeUS,GyrX,GyrY,GyrZ,Roll,Pitch,Yaw,C1,C2,C3,C4,TimeSec
65639567,0.0009265571716241539,0.0008897613734006882,0.0009074994595721364,0.06872344017028809,0.05597376450896263,354.6111145019531,1000.0,1000.0,1000.0,1000.0,0.0
65639567,0.0011882575927302241,0.0008291711565107107,0.0009778901003301144,0.06872344017028809,0.05597376450896263,354.6111145019531,1000.0,1000.0,1000.0,1000.0,0.0
65679551,0.000944791710935533,0.0009432864608243108,0.0008656968711875379,0.06872344017028809,0.05597376450896263,354.6111145019531,1000.0,1000.0,1000.0,1000.0,0.039984
65679551,0.000641954829916358,0.0007831552065908909,0.0009344674763269722,0.06872344017028809,0.05597376450896263,354.6111145019531,1000.0,1000.0,1000.0,1000.0,0.039984
65719535,0.0009793383069336414,0.0008542171563021839,0.0009394959779456258,0.06872344017028809,0.05597376450896263,354.6111145019531,1000.0,1000.0,1000.0,1000.0,0.079968
65719535,0.001076304353773594,0.0008090969640761614,0.0012324994895607233,0.06872344017028809,0.05597376450896263,354.6111145019531,1000.0,1000.0,1000.0,1000.0,0.079968
65759519,0.0008866314310580492,0.0009699077345430851,0.0009222186636179686,0.06863564252853394,0.05587511882185936,354.6090087890625,1000.0,1000.0,1000.0,1000.0,0.119952
65759519,0.001082665752619505,0.0008246679790318012,0.0010967626003548503,0.06863564252853394,0.05587511882185936,354.6090087890625,1000.0,1000.0,1000.0,1000.0,0.119952
65799503,0.0009452984086237848,0.0008910996257327497,0.0010347483912482858,0.06863564252853394,0.05587511882185936,354.6090087890625,1000.0,1000.0,1000.0,1000.0,0.159936
65799503,0.0008723038481548429,0.0009725062409415841,0.0009081601747311652,0.06863564252853394,0.05587511882185936,354.6090087890625,1000.0,1000.0,1000.0,1000.0,0.159936
65839487,0.000900779094081372,0.000972574227489531,0.0008977111428976059,0.06866613030433655,0.05618419125676155,354.60699462890625,1000.0,1000.0,1000.0,1000.0,0.19992
65839487,0.0008952956995926797,0.001168132876046002,0.0008869732264429331,0.06866613030433655,0.05618419125676155,354.60699462890625,1000.0,1000.0,1000.0,1000.0,0.19992
65879471,0.0008770476561039686,0.0008169792126864195,0.0008553504012525082,0.06866613030433655,0.05618419125676155,354.60699462890625,1000.0,1000.0,1000.0,1000.0,0.239904
65879471,0.001199666177853942,0.0011434148764237761,0.0012311707250773907,0.06866613030433655,0.05618419125676155,354.60699462890625,1000.0,1000.0,1000.0,1000.0,0.239904
65919455,0.0009651911095716059,0.0009072995162568986,0.0009098711889237165,0.06866613030433655,0.05618419125676155,354.60699462890625,1000.0,1000.0,1000.0,1000.0,0.279888
65919455,0.0009649808635003865,0.0007392468396574259,0.000750057166442275,0.06866613030433655,0.05618419125676155,354.60699462890625,1000.0,1000.0,1000.0,1000.0,0.279888
65959439,0.0009462313610129058,0.0009425298194400966,0.0008893839549273252,0.0684637725353241,0.05602400377392769,354.6050720214844,1000.0,1000.0,1000.0,1000.0,0.319872
65959439,0.000831148587167263,0.0007439146284013987,0.0010387994116172194,0.0684637725353241,0.05602400377392769,354.6050720214844,1000.0,1000.0,1000.0,1000.0,0.319872
65999423,0.0007743966416455805,0.0009492002427577972,0.0009424060699529946,0.0684637725353241,0.05602400377392769,354.6050720214844,1000.0,1000.0,1000.0,1000.0,0.359856
65999423,0.0009513106197118759,0.0009484808542765677,0.0008660210878588259,0.0684637725353241,0.05602400377392769,354.6050720214844,1000.0,1000.0,1000.0,1000.0,0.359856
66039407,0.0008250070386566222,0.0009690664010122418,0.0009089608211070299,0.06865876913070679,0.05639171972870827,354.6032409667969,1000.0,1000.0,1000.0,1000.0,0.39984
66039407,0.00102613540366292,0.0007461311179213226,0.0008025923161767423,0.06865876913070679,0.05639171972870827,354.6032409667969,1000.0,1000.0,1000.0,1000.0,0.39984
66079391,0.0009204379748553038,0.0009262104285880923,0.000886155292391777,0.06865876913070679,0.05639171972870827,354.6032409667969,1000.0,1000.0,1000.0,1000.0,0.439824
66079391,0.0009395402739755809,0.0010505930986255407,0.0008589237695559859,0.06865876913070679,0.05639171972870827,354.6032409667969,1000.0,1000.0,1000.0,1000.0,0.439824
66119375,0.0009644812089391053,0.0008503121789544821,0.0009288769215345383,0.06865876913070679,0.05639171972870827,354.6032409667969,1000.0,1000.0,1000.0,1000.0,0.479808
66119375,0.0008620161679573357,0.0009236159385181963,0.001083160168491304,0.06865876913070679,0.05639171972870827,354.6032409667969,1000.0,1000.0,1000.0,1000.0,0.479808
66159359,0.0008954672957770526,0.0009796828962862492,0.0009329315507784486,0.06867565214633942,0.05611401051282883,354.6013488769531,1000.0,1000.0,1000.0,1000.0,0.519792
66159359,0.0010400682222098112,0.0007828307570889592,0.0008008279837667942,0.06867565214633942,0.05611401051282883,354.6013488769531,1000.0,1000.0,1000.0,1000.0,0.519792
66199343,0.0008402668754570186,0.0008251252002082765,0.0009424585732631385,0.06867565214633942,0.05611401051282883,354.6013488769531,1000.0,1000.0,1000.0,1000.0,0.559776
66199343,0.0008740518242120743,0.0009724949486553669,0.0009442983428016305,0.06867565214633942,0.05611401051282883,354.6013488769531,1000.0,1000.0,1000.0,1000.0,0.559776
66239327,0.0009204378584399819,0.0009381517884321511,0.0010089183924719691,0.06892485916614532,0.05639110505580902,354.59991455078125,1000.0,1000.0,1000.0,1000.0,0.59976
66239327,0.0010069254785776138,0.0008768420084379613,0.0008847684366628528,0.06892485916614532,0.05639110505580902,354.59991455078125,1000.0,1000.0,1000.0,1000.0,0.59976
66279311,0.0009127017692662776,0.0009160808403976262,0.0009480789303779602,0.06892485916614532,0.05639110505580902,354.59991455078125,1000.0,1000.0,1000.0,1000.0,0.639744
66279311,0.0011026153806596994,0.0007402024930343032,0.0008292618440464139,0.06892485916614532,0.05639110505580902,354.59991455078125,1000.0,1000.0,1000.0,1000.0,0.639744
66319295,0.0008956048986874521,0.0009244455141015351,0.000908643240109086,0.06892485916614532,0.05639110505580902,354.59991455078125,1000.0,1000.0,1000.0,1000.0,0.679728
66319295,0.0010450248373672366,0.0007878579199314117,0.0009428418707102537,0.06892485916614532,0.05639110505580902,354.59991455078125,1000.0,1000.0,1000.0,1000.0,0.679728
66359279,0.0009504630579613149,0.0009130314574576914,0.0008753946167416871,0.06875542551279068,0.05638648197054863,354.5981750488281,1000.0,1000.0,1000.0,1000.0,0.719712
66359279,0.0007704517338424921,0.0009284469415433705,0.0009515556739643216,0.06875542551279068,0.05638648197054863,354.5981750488281,1000.0,1000.0,1000.0,1000.0,0.719712
66399263,0.0009989812970161438,0.0009055151604115963,0.0009189876727759838,0.06875542551279068,0.05638648197054863,354.5981750488281,1000.0,1000.0,1000.0,1000.0,0.759696
66399263,0.0011867653811350465,0.0008254075655713677,0.0008779522031545639,0.06875542551279068,0.05638648197054863,354.5981750488281,1000.0,1000.0,1000.0,1000.0,0.759696
66439247,0.0010139408987015486,0.00106007547583431,0.0009533308329991996,0.06908250600099564,0.05652179196476936,354.59637451171875,1000.0,1000.0,1000.0,1000.0,0.79968
66439247,0.0009267597924917936,0.0009230893338099122,0.0009518256993032992,0.06908250600099564,0.05652179196476936,354.59637451171875,1000.0,1000.0,1000.0,1000.0,0.79968
66479231,0.0009588281391188502,0.0009357475209981203,0.0009310058085247874,0.06908250600099564,0.05652179196476936,354.59637451171875,1000.0,1000.0,1000.0,1000.0,0.839664
66479231,0.0008450456662103534,0.0006990188267081976,0.0006899276631884277,0.06908250600099564,0.05652179196476936,354.59637451171875,1000.0,1000.0,1000.0,1000.0,0.839664
66519215,0.0009034596150740981,0.0008806248079054058,0.0009347238810732961,0.06908250600099564,0.05652179196476936,354.59637451171875,1000.0,1000.0,1000.0,1000.0,0.879648
66519215,0.0010445647640153766,0.0009601927595213056,0.0010092889424413443,0.06908250600099564,0.05652179196476936,354.59637451171875,1000.0,1000.0,1000.0,1000.0,0.879648
66559199,0.0009542766492813826,0.0009349594474770129,0.0009647111874073744,0.06894871592521667,0.056339386850595474,354.594482421875,1000.0,1000.0,1000.0,1000.0,0.919632
66559199,0.0009087065700441599,0.000655191543046385,0.0008733205031603575,0.06894871592521667,0.056339386850595474,354.594482421875,1000.0,1000.0,1000.0,1000.0,0.919632
66599183,0.0010074101155623794,0.0008877699729055166,0.0009205690585076809,0.06894871592521667,0.056339386850595474,354.594482421875,1000.0,1000.0,1000.0,1000.0,0.959616
66599183,0.0008800806244835258,0.0008628157083876431,0.0009876263793557882,0.06894871592521667,0.056339386850595474,354.594482421875,1000.0,1000.0,1000.0,1000.0,0.959616
66639167,0.001202666899189353,0.0011867841240018606,0.0009846733883023262,0.06922782957553864,0.056548506021499634,354.59271240234375,1000.0,1000.0,1000.0,1000.0,0.9996
66639167,0.0009882707381621003,0.0009833609219640493,0.000993499532341957,0.06922782957553864,0.056548506021499634,354.59271240234375,1000.0,1000.0,1000.0,1000.0,0.9996
66679151,0.0009798764949664474,0.0009567923261784017,0.0008837560308165848,0.06922782957553864,0.056548506021499634,354.59271240234375,1000.0,1000.0,1000.0,1000.0,1.039584
66679151,0.0007977343630045652,0.0010103785898536444,0.0009121882612816989,0.06922782957553864,0.056548506021499634,354.59271240234375,1000.0,1000.0,1000.0,1000.0,1.039584
66719135,0.000811732024885714,0.0009991263505071402,0.0009408206096850336,0.06922782957553864,0.056548506021499634,354.59271240234375,1000.0,1000.0,1000.0,1000.0,1.079568
66719135,0.0010657685343176126,0.0009254924370907247,0.000996828661300242,0.06922782957553864,0.056548506021499634,354.59271240234375,1000.0,1000.0,1000.0,1000.0,1.079568
66759119,0.0009027976775541902,0.0008859819499775767,0.0010243980213999748,0.06900323182344437,0.05640556663274765,354.59088134765625,1000.0,1000.0,1000.0,1000.0,1.119552
66759119,0.0011331979185342789,0.0007284668390639126,0.001072376617230475,0.06900323182344437,0.05640556663274765,354.59088134765625,1000.0,1000.0,1000.0,1000.0,1.119552
66799103,0.0009174449369311333,0.0009633781155571342,0.000894980737939477,0.06900323182344437,0.05640556663274765,354.59088134765625,1000.0,1000.0,1000.0,1000.0,1.159536
66799103,0.0008561984868720174,0.0011300953337922692,0.0008238233858719468,0.06900323182344437,0.05640556663274765,354.59088134765625,1000.0,1000.0,1000.0,1000.0,1.159536
66839087,0.0011423947289586067,0.0009005351457744837,0.000718012684956193,0.06907538324594498,0.056500256061553955,354.5892028808594,1000.0,1000.0,1000.0,1000.0,1.19952
66839087,0.000945043982937932,0.0009417025139555335,0.0009403045987710357,0.06907538324594498,0.056500256061553955,354.5892028808594,1000.0,1000.0,1000.0,1000.0,1.19952
66879071,0.000973587273620069,0.0008770662825554609,0.0008674193522892892,0.06907538324594498,0.056500256061553955,354.5892028808594,1000.0,1000.0,1000.0,1000.0,1.239504
66879071,0.0009505728958174586,0.0009014594834297895,0.0008982332656159997,0.06907538324594498,0.056500256061553955,354.5892028808594,1000.0,1000.0,1000.0,1000.0,1.239504
66919055,0.000991567736491561,0.0010070372372865677,0.001004965859465301,0.06907538324594498,0.056500256061553955,354.5892028808594,1000.0,1000.0,1000.0,1000.0,1.279488
66919055,0.0008622189052402973,0.0008168875938281417,0.0011850269511342049,0.06907538324594498,0.056500256061553955,354.5892028808594,1000.0,1000.0,1000.0,1000.0,1.279488
66959039,0.0009279425721615553,0.0010292073711752892,0.0009392194333486259,0.0690649077296257,0.05654577910900116,354.58758544921875,1000.0,1000.0,1000.0,1000.0,1.319472
66959039,0.0010172480251640081,0.0006990424590185285,0.0010079238563776016,0.0690649077296257,0.05654577910900116,354.58758544921875,1000.0,1000.0,1000.0,1000.0,1.319472
66999023,0.0009476703708060086,0.000961451034527272,0.0010412868577986956,0.0690649077296257,0.05654577910900116,354.58758544921875,1000.0,1000.0,1000.0,1000.0,1.359456
66999023,0.0011981596471741796,0.0008127079345285892,0.0010716035030782223,0.0690649077296257,0.05654577910900116,354.58758544921875,1000.0,1000.0,1000.0,1000.0,1.359456
67039840,0.0009124147472903132,0.0009159014443866909,0.0008910757023841143,0.06930875033140182,0.05673317611217499,354.5859069824219,1000.0,1000.0,1000.0,1000.0,1.400273
67039840,0.0008759903721511364,0.0010985085973516107,0.0008115601958706975,0.06930875033140182,0.05673317611217499,354.5859069824219,1000.0,1000.0,1000.0,1000.0,1.400273
67079824,0.0010391881223767996,0.0007926414255052805,0.0009558445890434086,0.06930875033140182,0.05673317611217499,354.5859069824219,1000.0,1000.0,1000.0,1000.0,1.440257
67079824,0.0009056464768946171,0.0009201953653246164,0.0009705648990347981,0.06930875033140182,0.05673317611217499,354.5859069824219,1000.0,1000.0,1000.0,1000.0,1.440257
67119808,0.0009953139815479517,0.000971904955804348,0.0009424218442291021,0.06930875033140182,0.05673317611217499,354.5859069824219,1000.0,1000.0,1000.0,1000.0,1.480241
67119808,0.000947799941059202,0.000668437103740871,0.0009300800156779587,0.06930875033140182,0.05673317611217499,354.5859069824219,1000.0,1000.0,1000.0,1000.0,1.480241
67159792,0.0008968223119154572,0.0009230941068381071,0.0008445749990642071,0.06917008757591248,0.05654498562216759,354.58489990234375,1000.0,1000.0,1000.0,1000.0,1.520225
67159792,0.0011134445667266846,0.0008137065451592207,0.0010831073159351945,0.06917008757591248,0.05654498562216759,354.58489990234375,1000.0,1000.0,1000.0,1000.0,1.520225
67199776,0.0009156821761280298,0.0009974665008485317,0.0009014280512928963,0.06917008757591248,0.05654498562216759,354.58489990234375,1000.0,1000.0,1000.0,1000.0,1.560209
67199776,0.0008851522579789162,0.0009923821780830622,0.0007749977521598339,0.06917008757591248,0.05654498562216759,354.58489990234375,1000.0,1000.0,1000.0,1000.0,1.560209
67239760,0.0009107126388698816,0.000981524819508195,0.0009595402516424656,0.06909505277872086,0.0567096583545208,354.58343505859375,1000.0,1000.0,1000.0,1000.0,1.600193
67239760,0.001219542813487351,0.0009641573997214437,0.0010597629006952047,0.06909505277872086,0.0567096583545208,354.58343505859375,1000.0,1000.0,1000.0,1000.0,1.600193
67279744,0.0009592277347110212,0.0008946512243710458,0.0009792520431801677,0.06909505277872086,0.0567096583545208,354.58343505859375,1000.0,1000.0,1000.0,1000.0,1.640177
67279744,0.0010166650172322989,0.0011034307535737753,0.0008419775986112654,0.06909505277872086,0.0567096583545208,354.58343505859375,1000.0,1000.0,1000.0,1000.0,1.640177
67319728,0.000978010706603527,0.0009468887583352625,0.000888579583261162,0.06909505277872086,0.0567096583545208,354.58343505859375,1000.0,1000.0,1000.0,1000.0,1.680161
67319728,0.001159720472060144,0.0011408105492591858,0.000809879566077143,0.06909505277872086,0.0567096583545208,354.58343505859375,1000.0,1000.0,1000.0,1000.0,1.680161
67359712,0.0008071707561612129,0.0009361277334392071,0.0008268882520496845,0.0690142959356308,0.05652536824345589,354.5818176269531,1000.0,1000.0,1000.0,1000.0,1.720145
67359712,0.0009545949287712574,0.000991559587419033,0.0008930100593715906,0.0690142959356308,0.05652536824345589,354.5818176269531,1000.0,1000.0,1000.0,1000.0,1.720145
67399696,0.000991067267023027,0.0009411220671609044,0.0010067783296108246,0.0690142959356308,0.05652536824345589,354.5818176269531,1000.0,1000.0,1000.0,1000.0,1.760129
67399696,0.0011360751232132316,0.0008580604335293174,0.0005046631558798254,0.0690142959356308,0.05652536824345589,354.5818176269531,1000.0,1000.0,1000.0,1000.0,1.760129
67439680,0.0009223962551914155,0.0009607570245862007,0.0009210376301780343,0.06931658089160919,0.05676012858748436,354.580078125,1000.0,1000.0,1000.0,1000.0,1.800113
67439680,0.0007160789100453258,0.0008477638475596905,0.001049149315804243,0.06931658089160919,0.05676012858748436,354.580078125,1000.0,1000.0,1000.0,1000.0,1.800113
67479664,0.0009475598926655948,0.0008759241900406778,0.0008986180182546377,0.06931658089160919,0.05676012858748436,354.580078125,1000.0,1000.0,1000.0,1000.0,1.840097
67479664,0.0008078924147412181,0.0012536238646134734,0.0009523291955702007,0.06931658089160919,0.05676012858748436,354.580078125,1000.0,1000.0,1000.0,1000.0,1.840097
67519648,0.0009644317324273288,0.0010655354708433151,0.0009156304877251387,0.06931658089160919,0.05676012858748436,354.580078125,1000.0,1000.0,1000.0,1000.0,1.880081
67519648,0.0007926191901788116,0.0010966628324240446,0.0009189934935420752,0.06931658089160919,0.05676012858748436,354.580078125,1000.0,1000.0,1000.0,1000.0,1.880081
67559632,0.0008729910477995872,0.0010880191111937165,0.0011569918133318424,0.06921113282442093,0.05652568116784096,354.5782470703125,1000.0,1000.0,1000.0,1000.0,1.920065
67559632,0.0009513250552117825,0.0009283070685341954,0.0009833516087383032,0.06921113282442093,0.05652568116784096,354.5782470703125,1000.0,1000.0,1000.0,1000.0,1.920065
67599616,0.000961161800660193,0.0009138109744526446,0.0008892224868759513,0.06921113282442093,0.05652568116784096,354.5782470703125,1000.0,1000.0,1000.0,1000.0,1.960049
67599616,0.0011515294900164008,0.0008147838525474072,0.0008866465650498867,0.06921113282442093,0.05652568116784096,354.5782470703125,1000.0,1000.0,1000.0,1000.0,1.960049
67639600,0.0008701999904587865,0.0009581629419699311,0.0009906123159453273,0.06924817711114883,0.05661569535732269,354.5765075683594,1000.0,1000.0,1000.0,1000.0,2.000033
67639600,0.0008950576302595437,0.0011464280541986227,0.0007592827314510942,0.06924817711114883,0.05661569535732269,354.5765075683594,1000.0,1000.0,1000.0,1000.0,2.000033
67679584,0.0009319212986156344,0.0009071709937416017,0.0009682090603746474,0.06924817711114883,0.05661569535732269,354.5765075683594,1000.0,1000.0,1000.0,1000.0,2.040017
67679584,0.0010998003417626023,0.0008518992690369487,0.0007754270336590707,0.06924817711114883,0.05661569535732269,354.5765075683594,1000.0,1000.0,1000.0,1000.0,2.040017
67719568,0.0009354754583910108,0.0009188289986923337,0.0009470641962252557,0.06924817711114883,0.05661569535732269,354.5765075683594,1000.0,1000.0,1000.0,1000.0,2.080001
67719568,0.0010107086272910237,0.0007110347505658865,0.0009967619553208351,0.06924817711114883,0.05661569535732269,354.5765075683594,1000.0,1000.0,1000.0,1000.0,2.080001
67759552,0.000988605199381709,0.0011881738901138306,0.0007014369475655258,0.06912945955991745,0.05638071894645691,354.5749206542969,1000.0,1000.0,1000.0,1000.0,2.119985
67759552,0.0009829127229750156,0.0009679821087047458,0.0009620037744753063,0.06912945955991745,0.05638071894645691,354.5749206542969,1000.0,1000.0,1000.0,1000.0,2.119985
67799536,0.0011840437073260546,0.000975474831648171,0.0008396993507631123,0.06912945955991745,0.05638071894645691,354.5749206542969,1000.0,1000.0,1000.0,1000.0,2.159969
67799536,0.0009015289251692593,0.0010227005695924163,0.0009711760794743896,0.06912945955991745,0.05638071894645691,354.5749206542969,1000.0,1000.0,1000.0,1000.0,2.159969
67839520,0.000984324375167489,0.000933414907194674,0.0009255807381123304,0.06925877183675766,0.05656697601079941,354.5732116699219,1000.0,1000.0,1000.0,1000.0,2.199953
67839520,0.0011578898411244154,0.0009782962733879685,0.001002988312393427,0.06925877183675766,0.05656697601079941,354.5732116699219,1000.0,1000.0,1000.0,1000.0,2.199953
67879504,0.0008568463381379843,0.0009923598263412714,0.0009933600667864084,0.06925877183675766,0.05656697601079941,354.5732116699219,1000.0,1000.0,1000.0,1000.0,2.239937
67879504,0.0011592828668653965,0.0011152680963277817,0.0009847364854067564,0.06925877183675766,0.05656697601079941,354.5732116699219,1000.0,1000.0,1000.0,1000.0,2.239937
67919488,0.0009894436225295067,0.0009760240209288895,0.0009855767711997032,0.06925877183675766,0.05656697601079941,354.5732116699219,1000.0,1000.0,1000.0,1000.0,2.279921
67919488,0.001126547809690237,0.0009110517567023635,0.0008696775184944272,0.06925877183675766,0.05656697601079941,354.5732116699219,1000.0,1000.0,1000.0,1000.0,2.279921
67959472,0.0009118359303101897,0.0009268923895433545,0.0009165658848360181,0.0690954402089119,0.056393373757600784,354.5716552734375,1000.0,1000.0,1000.0,1000.0,2.319905
67959472,0.0009411433129571378,0.0008481869590468705,0.0008243372431024909,0.0690954402089119,0.056393373757600784,354.5716552734375,1000.0,1000.0,1000.0,1000.0,2.319905
67999456,0.0009404894080944359,0.0009797896491363645,0.0009529051603749394,0.0690954402089119,0.056393373757600784,354.5716552734375,1000.0,1000.0,1000.0,1000.0,2.359889
67999456,0.0009063099278137088,0.0009543447522446513,0.0010110893053933978,0.0690954402089119,0.056393373757600784,354.5716552734375,1000.0,1000.0,1000.0,1000.0,2.359889
68039440,0.000943375111091882,0.0007652804488316178,0.0009006866021081805,0.06928928941488266,0.05660706385970116,354.5697326660156,1000.0,1000.0,1000.0,1000.0,2.399873
68039440,0.0009629474370740354,0.0009713659528642893,0.0008900283719412982,0.06928928941488266,0.05660706385970116,354.5697326660156,1000.0,1000.0,1000.0,1000.0,2.399873
68079424,0.0009349234751425683,0.0009114243439398706,0.001059333560988307,0.06928928941488266,0.05660706385970116,354.5697326660156,1000.0,1000.0,1000.0,1000.0,2.439857
68079424,0.001097212079912424,0.0009044770849868655,0.0008735271403566003,0.06928928941488266,0.05660706385970116,354.5697326660156,1000.0,1000.0,1000.0,1000.0,2.439857
68119408,0.0009569966932758689,0.000959336175583303,0.0010067463153973222,0.06928928941488266,0.05660706385970116,354.5697326660156,1000.0,1000.0,1000.0,1000.0,2.479841
68119408,0.0009375429362989962,0.0006094208220019937,0.0010673203505575657,0.06928928941488266,0.05660706385970116,354.5697326660156,1000.0,1000.0,1000.0,1000.0,2.479841
68159392,0.0010217762319371104,0.0009825695306062698,0.0009760352550074458,0.06909698247909546,0.05634063854813576,354.5682373046875,1000.0,1000.0,1000.0,1000.0,2.519825
68159392,0.0011633428512141109,0.0009821547428146005,0.0010413546115159988,0.06909698247909546,0.05634063854813576,354.5682373046875,1000.0,1000.0,1000.0,1000.0,2.519825
68199376,0.0009287194116041064,0.0009122302290052176,0.0009721674723550677,0.06909698247909546,0.05634063854813576,354.5682373046875,1000.0,1000.0,1000.0,1000.0,2.559809
68199376,0.0008504843572154641,0.0009596016607247293,0.0008502666605636477,0.06909698247909546,0.05634063854813576,354.5682373046875,1000.0,1000.0,1000.0,1000.0,2.559809
68239360,0.001040206290781498,0.0007535596378147602,0.0009245480177924037,0.06923278421163559,0.05642206221818924,354.56671142578125,1000.0,1000.0,1000.0,1000.0,2.599793
68239360,0.0009348172461614013,0.0010063140653073788,0.0009729106677696109,0.06923278421163559,0.05642206221818924,354.56671142578125,1000.0,1000.0,1000.0,1000.0,2.599793
68279344,0.0009123514755629003,0.000948611181229353,0.000938789511565119,0.06923278421163559,0.05642206221818924,354.56671142578125,1000.0,1000.0,1000.0,1000.0,2.639777
68279344,0.0010911338031291962,0.00071200035745278,0.0010936125181615353,0.06923278421163559,0.05642206221818924,354.56671142578125,1000.0,1000.0,1000.0,1000.0,2.639777
68319328,0.0009227736736647785,0.000994969392195344,0.0009419346461072564,0.06923278421163559,0.05642206221818924,354.56671142578125,1000.0,1000.0,1000.0,1000.0,2.679761
68319328,0.0011005981359630823,0.001105514820665121,0.0010204394347965717,0.06923278421163559,0.05642206221818924,354.56671142578125,1000.0,1000.0,1000.0,1000.0,2.679761
68359312,0.000964559440035373,0.0009671822190284729,0.0009556195000186563,0.06894471496343613,0.05626595392823219,354.56500244140625,1000.0,1000.0,1000.0,1000.0,2.719745
68359312,0.0010115094482898712,0.0008782128570601344,0.0010583807015791535,0.06894471496343613,0.05626595392823219,354.56500244140625,1000.0,1000.0,1000.0,1000.0,2.719745
68399296,0.0008827124838717282,0.0009899982251226902,0.0010321546578779817,0.06894471496343613,0.05626595392823219,354.56500244140625,1000.0,1000.0,1000.0,1000.0,2.759729
68399296,0.0010185283608734608,0.0008678636513650417,0.0008893323829397559,0.06894471496343613,0.05626595392823219,354.56500244140625,1000.0,1000.0,1000.0,1000.0,2.759729
68439280,0.0009413079242222011,0.000969887594692409,0.0009689123835414648,0.06889084726572037,0.05652259290218353,354.5634765625,1000.0,1000.0,1000.0,1000.0,2.799713
68439280,0.0011185967596247792,0.0012257411144673824,0.0009425579337403178,0.06889084726572037,0.05652259290218353,354.5634765625,1000.0,1000.0,1000.0,1000.0,2.799713
68479264,0.001142800785601139,0.0007729331264272332,0.0010415803408250213,0.06889084726572037,0.05652259290218353,354.5634765625,1000.0,1000.0,1000.0,1000.0,2.839697
68479264,0.0009691669256426394,0.0009954627603292465,0.0009876085678115487,0.06889084726572037,0.05652259290218353,354.5634765625,1000.0,1000.0,1000.0,1000.0,2.839697
68519248,0.0009137507295235991,0.0009660731302574277,0.0010282171424478292,0.06889084726572037,0.05652259290218353,354.5634765625,1000.0,1000.0,1000.0,1000.0,2.879681
68519248,0.001110610319301486,0.001014110166579485,0.0008860472007654607,0.06889084726572037,0.05652259290218353,354.5634765625,1000.0,1000.0,1000.0,1000.0,2.879681
68559232,0.0009428911725990474,0.0009400616399943829,0.0008942388813011348,0.06873118877410889,0.056422390043735504,354.5621032714844,1000.0,1000.0,1000.0,1000.0,2.919665
68559232,0.0011051797773689032,0.0008824039250612259,0.0011238078586757183,0.06873118877410889,0.056422390043735504,354.5621032714844,1000.0,1000.0,1000.0,1000.0,2.919665
68599216,0.0009086680365726352,0.0010261442512273788,0.0009216181351803243,0.06873118877410889,0.056422390043735504,354.5621032714844,1000.0,1000.0,1000.0,1000.0,2.959649
68599216,0.00107014668174088,0.0008291422273032367,0.0010620636167004704,0.06873118877410889,0.056422390043735504,354.5621032714844,1000.0,1000.0,1000.0,1000.0,2.959649
68639200,0.0009299514349550009,0.0009478538413532078,0.0009531249525025487,0.06871182471513748,0.05672493949532509,354.56024169921875,1000.0,1000.0,1000.0,1000.0,2.999633
68639200,0.0010636867955327034,0.0009361912962049246,0.0009198997868224978,0.06871182471513748,0.05672493949532509,354.56024169921875,1000.0,1000.0,1000.0,1000.0,2.999633
68679184,0.0008953420328907669,0.0008398278732784092,0.0008634813711978495,0.06871182471513748,0.05672493949532509,354.56024169921875,1000.0,1000.0,1000.0,1000.0,3.039617
68679184,0.0008644473273307085,0.0009613146539777517,0.0009867328917607665,0.06871182471513748,0.05672493949532509,354.56024169921875,1000.0,1000.0,1000.0,1000.0,3.039617
68719168,0.0009745126008056104,0.001005276688374579,0.0009996785083785653,0.06871182471513748,0.05672493949532509,354.56024169921875,1000.0,1000.0,1000.0,1000.0,3.079601
68719168,0.0010210516629740596,0.0011036531068384647,0.00116019940469414,0.06871182471513748,0.05672493949532509,354.56024169921875,1000.0,1000.0,1000.0,1000.0,3.079601
68759152,0.0009412989020347595,0.0010677347891032696,0.0009644092060625553,0.06850959360599518,0.056772928684949875,354.55877685546875,1000.0,1000.0,1000.0,1000.0,3.119585
68759152,0.0009571539703756571,0.0007324701873585582,0.0008567809709347785,0.06850959360599518,0.056772928684949875,354.55877685546875,1000.0,1000.0,1000.0,1000.0,3.119585
68799136,0.0009485910995863378,0.0009548753732815385,0.0009470151853747666,0.06850959360599518,0.056772928684949875,354.55877685546875,1000.0,1000.0,1000.0,1000.0,3.159569
68799136,0.001118131447583437,0.0010761767625808716,0.0011527093593031168,0.06850959360599518,0.056772928684949875,354.55877685546875,1000.0,1000.0,1000.0,1000.0,3.159569
68839120,0.0009245562832802534,0.0010004073847085238,0.0009847369510680437,0.0686090812087059,0.05706300586462021,354.5570983886719,1000.0,1000.0,1000.0,1000.0,3.199553
68839120,0.0008329360280185938,0.0005321706412360072,0.0008896766230463982,0.0686090812087059,0.05706300586462021,354.5570983886719,1000.0,1000.0,1000.0,1000.0,3.199553
68879104,0.0010964230168610811,0.0007879914483055472,0.0010348135838285089,0.0686090812087059,0.05706300586462021,354.5570983886719,1000.0,1000.0,1000.0,1000.0,3.239537
68879104,0.0008995392126962543,0.0009757534135133028,0.0009610545239411294,0.0686090812087059,0.05706300586462021,354.5570983886719,1000.0,1000.0,1000.0,1000.0,3.239537
68919088,0.0009173797443509102,0.0009398480178788304,0.0010033532744273543,0.0686090812087059,0.05706300586462021,354.5570983886719,1000.0,1000.0,1000.0,1000.0,3.279521
68919088,0.0009012570371851325,0.0007558229845017195,0.0011060611577704549,0.0686090812087059,0.05706300586462021,354.5570983886719,1000.0,1000.0,1000.0,1000.0,3.279521
68959072,0.0009669334394857287,0.001007307437248528,0.0009421216091141105,0.06829474121332169,0.05696583539247513,354.5553894042969,1000.0,1000.0,1000.0,1000.0,3.319505
68959072,0.0009464279864914715,0.000973018235526979,0.0007907734252512455,0.06829474121332169,0.05696583539247513,354.5553894042969,1000.0,1000.0,1000.0,1000.0,3.319505
68999056,0.0009250356815755367,0.000956030678935349,0.0009652429725974798,0.06829474121332169,0.05696583539247513,354.5553894042969,1000.0,1000.0,1000.0,1000.0,3.359489
68999056,0.0007878574542701244,0.0007150046876631677,0.000914512958843261,0.06829474121332169,0.05696583539247513,354.5553894042969,1000.0,1000.0,1000.0,1000.0,3.359489
69039040,0.000956294359639287,0.0010148645378649235,0.0009765443974174559,0.06856770813465118,0.0574590303003788,354.5538024902344,1000.0,1000.0,1000.0,1000.0,3.399473
69039040,0.0010680891573429108,0.0010071925353258848,0.0010069210547953844,0.06856770813465118,0.0574590303003788,354.5538024902344,1000.0,1000.0,1000.0,1000.0,3.399473
69079024,0.0010178507072851062,0.001003387849777937,0.0009215803002007306,0.06856770813465118,0.0574590303003788,354.5538024902344,1000.0,1000.0,1000.0,1000.0,3.439457
69079024,0.0007419634493999183,0.0010257977992296219,0.0008315998711623251,0.06856770813465118,0.0574590303003788,354.5538024902344,1000.0,1000.0,1000.0,1000.0,3.439457
69119841,0.0010215246584266424,0.001010659383609891,0.00103546935133636,0.06856770813465118,0.0574590303003788,354.5538024902344,1000.0,1000.0,1000.0,1000.0,3.480274
69119841,0.0009344324935227633,0.001061099930666387,0.0009931628592312336,0.06856770813465118,0.0574590303003788,354.5538024902344,1000.0,1000.0,1000.0,1000.0,3.480274
69159825,0.0009671954903751612,0.0009841516148298979,0.000970659195445478,0.06826178729534149,0.05750546231865883,354.55206298828125,1000.0,1000.0,1000.0,1000.0,3.520258
69159825,0.0009720246307551861,0.0009817900136113167,0.0010015268344432116,0.06826178729534149,0.05750546231865883,354.55206298828125,1000.0,1000.0,1000.0,1000.0,3.520258
69199809,0.0009886177722364664,0.001014605164527893,0.0009807483293116093,0.06826178729534149,0.05750546231865883,354.55206298828125,1000.0,1000.0,1000.0,1000.0,3.560242
69199809,0.0010365662164986134,0.000949665205553174,0.0012177015887573361,0.06826178729534149,0.05750546231865883,354.55206298828125,1000.0,1000.0,1000.0,1000.0,3.560242
69239793,0.0010164689738303423,0.000983009347692132,0.0010031100828200579,0.06844741851091385,0.05778755247592926,354.55047607421875,1000.0,1000.0,1000.0,1000.0,3.600226
69239793,0.0010408795205876231,0.0008109065238386393,0.0008191722445189953,0.06844741851091385,0.05778755247592926,354.55047607421875,1000.0,1000.0,1000.0,1000.0,3.600226
69279777,0.0010159977246075869,0.0010005687363445759,0.0009508630027994514,0.06844741851091385,0.05778755247592926,354.55047607421875,1000.0,1000.0,1000.0,1000.0,3.64021
69279777,0.0011389580322429538,0.0012155197327956557,0.001022792188450694,0.06844741851091385,0.05778755247592926,354.55047607421875,1000.0,1000.0,1000.0,1000.0,3.64021
69319761,0.0009533877018839121,0.0009444810566492379,0.0010015786392614245,0.06844741851091385,0.05778755247592926,354.55047607421875,1000.0,1000.0,1000.0,1000.0,3.680194
69319761,0.0010418712627142668,0.000870978576131165,0.0009905877523124218,0.06844741851091385,0.05778755247592926,354.55047607421875,1000.0,1000.0,1000.0,1000.0,3.680194
69359745,0.000978745985776186,0.0009604940423741937,0.0009734268533065915,0.06831290572881699,0.05758628994226456,354.5490417480469,1000.0,1000.0,1000.0,1000.0,3.720178
69359745,0.0009680925868451595,0.0010787269566208124,0.0009458985296078026,0.06831290572881699,0.05758628994226456,354.5490417480469,1000.0,1000.0,1000.0,1000.0,3.720178
69399729,0.0008952015778049827,0.000988953048363328,0.0008428811561316252,0.06831290572881699,0.05758628994226456,354.5490417480469,1000.0,1000.0,1000.0,1000.0,3.760162
69399729,0.000970201741438359,0.0009947852231562138,0.0009808700997382402,0.06831290572881699,0.05758628994226456,354.5490417480469,1000.0,1000.0,1000.0,1000.0,3.760162
69439713,0.0009444503230042756,0.0010387331712991,0.0008816522895358503,0.06847164779901505,0.05778681859374046,354.5474548339844,1000.0,1000.0,1000.0,1000.0,3.800146
69439713,0.0008232920081354678,0.0009032677626237273,0.000822758418507874,0.06847164779901505,0.05778681859374046,354.5474548339844,1000.0,1000.0,1000.0,1000.0,3.800146
69479697,0.0009702168172225356,0.000969661632552743,0.0009548465022817254,0.06847164779901505,0.05778681859374046,354.5474548339844,1000.0,1000.0,1000.0,1000.0,3.84013
69479697,0.0011465945281088352,0.0008193146204575896,0.0009093355038203299,0.06847164779901505,0.05778681859374046,354.5474548339844,1000.0,1000.0,1000.0,1000.0,3.84013
69519681,0.0009307801956310868,0.0010334844700992107,0.0009984964272007346,0.06847164779901505,0.05778681859374046,354.5474548339844,1000.0,1000.0,1000.0,1000.0,3.880114
69519681,0.0009406488970853388,0.0009926052298396826,0.0011537253158167005,0.06847164779901505,0.05778681859374046,354.5474548339844,1000.0,1000.0,1000.0,1000.0,3.880114
69559665,0.0008599840803071856,0.001023104414343834,0.0009636429022066295,0.06826122850179672,0.05773676559329033,354.5460205078125,1000.0,1000.0,1000.0,1000.0,3.920098
69559665,0.0013073845766484737,0.001187703339383006,0.0009245306719094515,0.06826122850179672,0.05773676559329033,354.5460205078125,1000.0,1000.0,1000.0,1000.0,3.920098
69599649,0.0009651134023442864,0.0009846622124314308,0.0008510628249496222,0.06826122850179672,0.05773676559329033,354.5460205078125,1000.0,1000.0,1000.0,1000.0,3.960082
69599649,0.0009331511100754142,0.0009747128933668137,0.0009314113412983716,0.06826122850179672,0.05773676559329033,354.5460205078125,1000.0,1000.0,1000.0,1000.0,3.960082
69639633,0.0008901614346541464,0.0008555746753700078,0.0009720201487652957,0.06821060180664062,0.057999975979328156,354.5443420410156,1000.0,1000.0,1000.0,1000.0,4.000066
69639633,0.0009291442111134529,0.0009631803841330111,0.0009288909495808184,0.06821060180664062,0.057999975979328156,354.5443420410156,1000.0,1000.0,1000.0,1000.0,4.000066
69679617,0.00100161402951926,0.0010295541724190116,0.000974657479673624,0.06821060180664062,0.057999975979328156,354.5443420410156,1000.0,1000.0,1000.0,1000.0,4.04005
69679617,0.0009430242935195565,0.0009422970470041037,0.0009336807415820658,0.06821060180664062,0.057999975979328156,354.5443420410156,1000.0,1000.0,1000.0,1000.0,4.04005
69719601,0.0009855208918452263,0.0009399753762409091,0.0010336341802030802,0.06821060180664062,0.057999975979328156,354.5443420410156,1000.0,1000.0,1000.0,1000.0,4.080034
69719601,0.0007857985328882933,0.0011591697111725807,0.0010928474366664886,0.06821060180664062,0.057999975979328156,354.5443420410156,1000.0,1000.0,1000.0,1000.0,4.080034
69759585,0.001019190181978047,0.0010108514688909054,0.0009920072043314576,0.06814821809530258,0.05779043585062027,354.5428161621094,1000.0,1000.0,1000.0,1000.0,4.120018
69759585,0.0011293796123936772,0.0007306517218239605,0.0014380882494151592,0.06814821809530258,0.05779043585062027,354.5428161621094,1000.0,1000.0,1000.0,1000.0,4.120018
69799569,0.0009422922739759088,0.0009624275844544172,0.0009875569958239794,0.06814821809530258,0.05779043585062027,354.5428161621094,1000.0,1000.0,1000.0,1000.0,4.160002
69799569,0.00095976865850389,0.001038595219142735,0.0007906911196187139,0.06814821809530258,0.05779043585062027,354.5428161621094,1000.0,1000.0,1000.0,1000.0,4.160002
69839553,0.0009590033441781998,0.0009360533440485597,0.0009760420070961118,0.06832484900951385,0.05795672535896301,354.541259765625,1000.0,1000.0,1000.0,1000.0,4.199986
69839553,0.0011991451028734446,0.0009350734180770814,0.0013077780604362488,0.06832484900951385,0.05795672535896301,354.541259765625,1000.0,1000.0,1000.0,1000.0,4.199986
69879537,0.0008465275750495493,0.0008332157740369439,0.0008323236834257841,0.06832484900951385,0.05795672535896301,354.541259765625,1000.0,1000.0,1000.0,1000.0,4.23997
69879537,0.0009618287440389395,0.0009212923469021916,0.0009614627924747765,0.06832484900951385,0.05795672535896301,354.541259765625,1000.0,1000.0,1000.0,1000.0,4.23997
69919521,0.0010062417713925242,0.0010195279028266668,0.0010003925999626517,0.06832484900951385,0.05795672535896301,354.541259765625,1000.0,1000.0,1000.0,1000.0,4.279954
69919521,0.0012777242809534073,0.001035523135215044,0.001024318509735167,0.06832484900951385,0.05795672535896301,354.541259765625,1000.0,1000.0,1000.0,1000.0,4.279954
69959505,0.0009278740035369992,0.000981886638328433,0.0010066453833132982,0.06798075884580612,0.0576285757124424,354.539306640625,1000.0,1000.0,1000.0,1000.0,4.319938
69959505,0.0010682300198823214,0.0006849400233477354,0.000977962976321578,0.06798075884580612,0.0576285757124424,354.539306640625,1000.0,1000.0,1000.0,1000.0,4.319938
69999489,0.001066314522176981,0.0009356257505714893,0.000953296956140548,0.06798075884580612,0.0576285757124424,354.539306640625,1000.0,1000.0,1000.0,1000.0,4.359922
69999489,0.0008404057589359581,0.000988359097391367,0.0011017039651051164,0.06798075884580612,0.0576285757124424,354.539306640625,1000.0,1000.0,1000.0,1000.0,4.359922
70039473,0.0009133589337579906,0.001020718365907669,0.0009680186631157994,0.06822642683982849,0.05790291354060173,354.53765869140625,1000.0,1000.0,1000.0,1000.0,4.399906
70039473,0.001008213497698307,0.0011201587039977312,0.001043110154569149,0.06822642683982849,0.05790291354060173,354.53765869140625,1000.0,1000.0,1000.0,1000.0,4.399906
70079457,0.0007903407095000148,0.0008259210735559464,0.0010349800577387214,0.06822642683982849,0.05790291354060173,354.53765869140625,1000.0,1000.0,1000.0,1000.0,4.43989
70079457,0.0009781820699572563,0.0009839609265327454,0.0009589805267751217,0.06822642683982849,0.05790291354060173,354.53765869140625,1000.0,1000.0,1000.0,1000.0,4.43989
70119441,0.0009513974073342979,0.001011120737530291,0.0010151423048228025,0.06822642683982849,0.05790291354060173,354.53765869140625,1000.0,1000.0,1000.0,1000.0,4.479874
70119441,0.0009283052058890462,0.000952643109485507,0.0009170002304017544,0.06822642683982849,0.05790291354060173,354.53765869140625,1000.0,1000.0,1000.0,1000.0,4.479874
70159425,0.000938816461712122,0.0009661827934905887,0.0010522145312279463,0.06803538650274277,0.057787973433732986,354.5361633300781,1000.0,1000.0,1000.0,1000.0,4.519858
70159425,0.0011474010534584522,0.0009233490563929081,0.001043017953634262,0.06803538650274277,0.057787973433732986,354.5361633300781,1000.0,1000.0,1000.0,1000.0,4.519858
70199409,0.0010668758768588305,0.0010366286151111126,0.0009824363514780998,0.06803538650274277,0.057787973433732986,354.5361633300781,1000.0,1000.0,1000.0,1000.0,4.559842
70199409,0.0011750496923923492,0.0009828105103224516,0.0007973059546202421,0.06803538650274277,0.057787973433732986,354.5361633300781,1000.0,1000.0,1000.0,1000.0,4.559842
70239393,0.0009056612616404891,0.0010006795637309551,0.001025862991809845,0.06815377622842789,0.05803379416465759,354.5350341796875,1000.0,1000.0,1000.0,1000.0,4.599826
70239393,0.0008348683477379382,0.0009589896071702242,0.0009800333064049482,0.06815377622842789,0.05803379416465759,354.5350341796875,1000.0,1000.0,1000.0,1000.0,4.599826
70279377,0.0010058509651571512,0.001037296373397112,0.0009024325991049409,0.06815377622842789,0.05803379416465759,354.5350341796875,1000.0,1000.0,1000.0,1000.0,4.63981
70279377,0.0009890745859593153,0.000995892332866788,0.0010071905562654138,0.06815377622842789,0.05803379416465759,354.5350341796875,1000.0,1000.0,1000.0,1000.0,4.63981
70319361,0.0009775245562195778,0.0009667332633398473,0.000962443184107542,0.06815377622842789,0.05803379416465759,354.5350341796875,1000.0,1000.0,1000.0,1000.0,4.679794
70319361,0.0009483163594268262,0.00083070871187374,0.0010246244492009282,0.06815377622842789,0.05803379416465759,354.5350341796875,1000.0,1000.0,1000.0,1000.0,4.679794
70359345,0.0010160569800063968,0.0009605840896256268,0.0010194885544478893,0.06800258904695511,0.057792048901319504,354.53375244140625,1000.0,1000.0,1000.0,1000.0,4.719778
70359345,0.0010057298932224512,0.0010795088019222021,0.0009326152503490448,0.06800258904695511,0.057792048901319504,354.53375244140625,1000.0,1000.0,1000.0,1000.0,4.719778
70399329,0.0010006946977227926,0.0010086731053888798,0.0010315690888091922,0.06800258904695511,0.057792048901319504,354.53375244140625,1000.0,1000.0,1000.0,1000.0,4.759762
70399329,0.0008127445471473038,0.001002866541966796,0.0008374059107154608,0.06800258904695511,0.057792048901319504,354.53375244140625,1000.0,1000.0,1000.0,1000.0,4.759762
70439313,0.0009900998556986451,0.0009390705963596702,0.0009896674891933799,0.06835632026195526,0.057923149317502975,354.5321960449219,1000.0,1000.0,1000.0,1000.0,4.799746
70439313,0.0010313648963347077,0.0011606414336711168,0.0010753507958725095,0.06835632026195526,0.057923149317502975,354.5321960449219,1000.0,1000.0,1000.0,1000.0,4.799746
70479297,0.0009197953040711582,0.0009906012564897537,0.0010252404026687145,0.06835632026195526,0.057923149317502975,354.5321960449219,1000.0,1000.0,1000.0,1000.0,4.83973
70479297,0.0007979500805959105,0.0010655885562300682,0.0007759705767966807,0.06835632026195526,0.057923149317502975,354.5321960449219,1000.0,1000.0,1000.0,1000.0,4.83973
70519281,0.0007409686222672462,0.0008551042410545051,0.0011633590329438448,0.06835632026195526,0.057923149317502975,354.5321960449219,1000.0,1000.0,1000.0,1000.0,4.879714
70519281,0.0010267571778967977,0.0009937507566064596,0.001020528725348413,0.06835632026195526,0.057923149317502975,354.5321960449219,1000.0,1000.0,1000.0,1000.0,4.879714
70559265,0.0010082065127789974,0.0009312969632446766,0.0009165166411548853,0.06822379678487778,0.05785363167524338,354.5307312011719,1000.0,1000.0,1000.0,1000.0,4.919698
70559265,0.0010504118399694562,0.001093464670702815,0.0008604167378507555,0.06822379678487778,0.05785363167524338,354.5307312011719,1000.0,1000.0,1000.0,1000.0,4.919698
70599249,0.0010216915979981422,0.0010616055224090815,0.0009515713900327682,0.06822379678487778,0.05785363167524338,354.5307312011719,1000.0,1000.0,1000.0,1000.0,4.959682
70599249,0.0010737961856648326,0.000810115656349808,0.0011514201760292053,0.06822379678487778,0.05785363167524338,354.5307312011719,1000.0,1000.0,1000.0,1000.0,4.959682
70639233,0.0009755533537827432,0.0009607310639694333,0.0010357184801250696,0.06850064545869827,0.057880647480487823,354.5290832519531,1000.0,1000.0,1000.0,1000.0,4.999666
70639233,0.0010244285222142935,0.001253886497579515,0.0012436422985047102,0.06850064545869827,0.057880647480487823,354.5290832519531,1000.0,1000.0,1000.0,1000.0,4.999666
70679217,0.0010243303840979934,0.0010188985615968704,0.0009978375164791942,0.06850064545869827,0.057880647480487823,354.5290832519531,1000.0,1000.0,1000.0,1000.0,5.03965
70679217,0.0009647669503465295,0.0007618218660354614,0.000915585842449218,0.06850064545869827,0.057880647480487823,354.5290832519531,1000.0,1000.0,1000.0,1000.0,5.03965
70719201,0.0008986727334558964,0.0011009639129042625,0.0008797827176749706,0.06850064545869827,0.057880647480487823,354.5290832519531,1000.0,1000.0,1000.0,1000.0,5.079634
70719201,0.000982403988018632,0.0009265407570637763,0.000998278264887631,0.06850064545869827,0.057880647480487823,354.5290832519531,1000.0,1000.0,1000.0,1000.0,5.079634
70759185,0.0010318440617993474,0.0010107059497386217,0.0010717326076701283,0.06852106004953384,0.05754470080137253,354.5276794433594,1000.0,1000.0,1000.0,1000.0,5.119618
70759185,0.0008901545079424977,0.0006882015150040388,0.0009136382141150534,0.06852106004953384,0.05754470080137253,354.5276794433594,1000.0,1000.0,1000.0,1000.0,5.119618
70799169,0.0009611858986318111,0.001035167369991541,0.001032710773870349,0.06852106004953384,0.05754470080137253,354.5276794433594,1000.0,1000.0,1000.0,1000.0,5.159602
70799169,0.0010920892236754298,0.0008574211969971657,0.0010823800694197416,0.06852106004953384,0.05754470080137253,354.5276794433594,1000.0,1000.0,1000.0,1000.0,5.159602
70839153,0.0009555474389344454,0.0009990257676690817,0.0009682401432655752,0.06869242340326309,0.0578334778547287,354.5262145996094,1000.0,1000.0,1000.0,1000.0,5.199586
70839153,0.0008604616159573197,0.0011028648586943746,0.0008408193243667483,0.06869242340326309,0.0578334778547287,354.5262145996094,1000.0,1000.0,1000.0,1000.0,5.199586
70879137,0.0009665060788393021,0.0009914366528391838,0.0010065624956041574,0.06869242340326309,0.0578334778547287,354.5262145996094,1000.0,1000.0,1000.0,1000.0,5.23957
70879137,0.0010194227797910571,0.0008586421608924866,0.0011568085756152868,0.06869242340326309,0.0578334778547287,354.5262145996094,1000.0,1000.0,1000.0,1000.0,5.23957
70919121,0.0010427890811115503,0.0009956365684047341,0.000537657702807337,0.06869242340326309,0.0578334778547287,354.5262145996094,1000.0,1000.0,1000.0,1000.0,5.279554
70919121,0.0009241637890227139,0.000962178164627403,0.001038715592585504,0.06869242340326309,0.0578334778547287,354.5262145996094,1000.0,1000.0,1000.0,1000.0,5.279554
70959105,0.0009492109529674053,0.0010244525037705898,0.001085340860299766,0.06843100488185883,0.05750703439116478,354.5246887207031,1000.0,1000.0,1000.0,1000.0,5.319538
70959105,0.0010547792771831155,0.0009626816026866436,0.0009448599885217845,0.06843100488185883,0.05750703439116478,354.5246887207031,1000.0,1000.0,1000.0,1000.0,5.319538
70999089,0.0009966038633137941,0.0009917236166074872,0.0010243713622912765,0.06843100488185883,0.05750703439116478,354.5246887207031,1000.0,1000.0,1000.0,1000.0,5.359522
70999089,0.0012143115745857358,0.0009065616759471595,0.0008418154902756214,0.06843100488185883,0.05750703439116478,354.5246887207031,1000.0,1000.0,1000.0,1000.0,5.359522
71039073,0.0009787362068891525,0.0009559226455166936,0.0009941563475877047,0.06878907978534698,0.05738391727209091,354.52325439453125,1000.0,1000.0,1000.0,1000.0,5.399506
71039073,0.0010827372316271067,0.0011488042073324323,0.0008689691894687712,0.06878907978534698,0.05738391727209091,354.52325439453125,1000.0,1000.0,1000.0,1000.0,5.399506
71079057,0.0009938692674040794,0.0009668605634942651,0.0010267449542880058,0.06878907978534698,0.05738391727209091,354.52325439453125,1000.0,1000.0,1000.0,1000.0,5.43949
71079057,0.0011429227888584137,0.0008621452143415809,0.0008975807577371597,0.06878907978534698,0.05738391727209091,354.52325439453125,1000.0,1000.0,1000.0,1000.0,5.43949
71119041,0.0009627023246139288,0.001094893435947597,0.0009430248173885047,0.06878907978534698,0.05738391727209091,354.52325439453125,1000.0,1000.0,1000.0,1000.0,5.479474
71119041,0.0008276541484519839,0.0009297483484260738,0.0010439185425639153,0.06878907978534698,0.05738391727209091,354.52325439453125,1000.0,1000.0,1000.0,1000.0,5.479474
71159025,0.000992917106486857,0.0010383594781160355,0.0009162328206002712,0.06866339594125748,0.05741127207875252,354.521728515625,1000.0,1000.0,1000.0,1000.0,5.519458
71159025,0.0011208293726667762,0.0010600911919027567,0.0009716732311062515,0.06866339594125748,0.05741127207875252,354.521728515625,1000.0,1000.0,1000.0,1000.0,5.519458
71199842,0.0008481609402224422,0.0007769647054374218,0.0009508458315394819,0.06866339594125748,0.05741127207875252,354.521728515625,1000.0,1000.0,1000.0,1000.0,5.560275
71199842,0.0010274015367031097,0.0009918835712596774,0.0010378803126513958,0.06866339594125748,0.05741127207875252,354.521728515625,1000.0,1000.0,1000.0,1000.0,5.560275
71239826,0.0009880318539217114,0.001036520698107779,0.0009931545937433839,0.06854000687599182,0.05749577656388283,354.5201110839844,1000.0,1000.0,1000.0,1000.0,5.600259
71239826,0.0011359723284840584,0.0012115727877244353,0.0011694187996909022,0.06854000687599182,0.05749577656388283,354.5201110839844,1000.0,1000.0,1000.0,1000.0,5.600259
71279810,0.0009242970263585448,0.0010136151686310768,0.0009572629351168871,0.06854000687599182,0.05749577656388283,354.5201110839844,1000.0,1000.0,1000.0,1000.0,5.640243
71279810,0.001010423293337226,0.0008888095617294312,0.0010244045406579971,0.06854000687599182,0.05749577656388283,354.5201110839844,1000.0,1000.0,1000.0,1000.0,5.640243
71319794,0.0009848825866356492,0.0010427098022773862,0.001073398976586759,0.06854000687599182,0.05749577656388283,354.5201110839844,1000.0,1000.0,1000.0,1000.0,5.680227
71319794,0.0008639931911602616,0.0009755858918651938,0.0008387268171645701,0.06854000687599182,0.05749577656388283,354.5201110839844,1000.0,1000.0,1000.0,1000.0,5.680227
71359778,0.0009899807628244162,0.0010501495562493801,0.0009527705842629075,0.06844008713960648,0.057524923235177994,354.5186462402344,1000.0,1000.0,1000.0,1000.0,5.720211
71359778,0.0012112525291740894,0.0006009970093145967,0.0009173384751193225,0.06844008713960648,0.057524923235177994,354.5186462402344,1000.0,1000.0,1000.0,1000.0,5.720211
71399762,0.0010410414543002844,0.0012897578999400139,0.0009479729924350977,0.06844008713960648,0.057524923235177994,354.5186462402344,1000.0,1000.0,1000.0,1000.0,5.760195
71399762,0.0010426449589431286,0.0010213805362582207,0.0010039395419880748,0.06844008713960648,0.057524923235177994,354.5186462402344,1000.0,1000.0,1000.0,1000.0,5.760195
71439746,0.0010321063455194235,0.0010490326676517725,0.0010853096609935164,0.06871028989553452,0.05791737884283066,354.5173034667969,1000.0,1000.0,1000.0,1000.0,5.800179
71439746,0.0010903629008680582,0.000982178607955575,0.001021845848299563,0.06871028989553452,0.05791737884283066,354.5173034667969,1000.0,1000.0,1000.0,1000.0,5.800179
71479730,0.0010088211856782436,0.0010106585687026381,0.0010271654464304447,0.06871028989553452,0.05791737884283066,354.5173034667969,1000.0,1000.0,1000.0,1000.0,5.840163
71479730,0.0010207213927060366,0.0010369861265644431,0.0010370080126449466,0.06871028989553452,0.05791737884283066,354.5173034667969,1000.0,1000.0,1000.0,1000.0,5.840163
71519714,0.0010089403949677944,0.0010131041053682566,0.0010135278571397066,0.06871028989553452,0.05791737884283066,354.5173034667969,1000.0,1000.0,1000.0,1000.0,5.880147
71519714,0.0008771286811679602,0.0009319385280832648,0.0008622079039923847,0.06871028989553452,0.05791737884283066,354.5173034667969,1000.0,1000.0,1000.0,1000.0,5.880147
71559698,0.0010781895834952593,0.0009667468257248402,0.001023540971800685,0.06877655535936356,0.057934582233428955,354.5158996582031,1000.0,1000.0,1000.0,1000.0,5.920131
71559698,0.0009425957687199116,0.000819746870547533,0.0009629391133785248,0.06877655535936356,0.057934582233428955,354.5158996582031,1000.0,1000.0,1000.0,1000.0,5.920131
71599682,0.0012650953140109777,0.0009081868920475245,0.0012763835256919265,0.06877655535936356,0.057934582233428955,354.5158996582031,1000.0,1000.0,1000.0,1000.0,5.960115
71599682,0.0009567028610035777,0.0010515863541513681,0.001096041640266776,0.06877655535936356,0.057934582233428955,354.5158996582031,1000.0,1000.0,1000.0,1000.0,5.960115
71639666,0.0009571233531460166,0.001066411379724741,0.0009770866017788649,0.06903069466352463,0.05827273800969124,354.5145568847656,1000.0,1000.0,1000.0,1000.0,6.000099
71639666,0.0009819318074733019,0.0010275961831212044,0.0010425748769193888,0.06903069466352463,0.05827273800969124,354.5145568847656,1000.0,1000.0,1000.0,1000.0,6.000099
71679650,0.000992905697785318,0.0009513851255178452,0.0010212862398475409,0.06903069466352463,0.05827273800969124,354.5145568847656,1000.0,1000.0,1000.0,1000.0,6.040083
71679650,0.0009902658639475703,0.0007667715544812381,0.000710461288690567,0.06903069466352463,0.05827273800969124,354.5145568847656,1000.0,1000.0,1000.0,1000.0,6.040083
71719634,0.0009505912894383073,0.0010650381445884705,0.0010163069237023592,0.06903069466352463,0.05827273800969124,354.5145568847656,1000.0,1000.0,1000.0,1000.0,6.080067
71719634,0.000742629636079073,0.001081869238987565,0.0013704061275348067,0.06903069466352463,0.05827273800969124,354.5145568847656,1000.0,1000.0,1000.0,1000.0,6.080067
71759618,0.0009737936779856682,0.0010472763096913695,0.001022450509481132,0.06869971007108688,0.05801008641719818,354.5132751464844,1000.0,1000.0,1000.0,1000.0,6.120051
71759618,0.0007468878175131977,0.0010304065654054284,0.0011239278828725219,0.06869971007108688,0.05801008641719818,354.5132751464844,1000.0,1000.0,1000.0,1000.0,6.120051
71799602,0.0010121907107532024,0.0009642030927352607,0.0010633219499140978,0.06869971007108688,0.05801008641719818,354.5132751464844,1000.0,1000.0,1000.0,1000.0,6.160035
71799602,0.0010469667613506317,0.0010017683962360024,0.0011831060983240604,0.06869971007108688,0.05801008641719818,354.5132751464844,1000.0,1000.0,1000.0,1000.0,6.160035
71839586,0.0012808175524696708,0.0008307659300044179,0.0010007848031818867,0.06885635852813721,0.05795254558324814,354.5119934082031,1000.0,1000.0,1000.0,1000.0,6.200019
71839586,0.0009866331238299608,0.0009693401516415179,0.0010085690300911665,0.06885635852813721,0.05795254558324814,354.5119934082031,1000.0,1000.0,1000.0,1000.0,6.200019
71879570,0.0009804286528378725,0.0009824567241594195,0.0010452244896441698,0.06885635852813721,0.05795254558324814,354.5119934082031,1000.0,1000.0,1000.0,1000.0,6.240003
71879570,0.0009709678124636412,0.000908773741684854,0.0010164080886170268,0.06885635852813721,0.05795254558324814,354.5119934082031,1000.0,1000.0,1000.0,1000.0,6.240003
71919554,0.00104060722514987,0.0010929761920124292,0.0010031114798039198,0.06885635852813721,0.05795254558324814,354.5119934082031,1000.0,1000.0,1000.0,1000.0,6.279987
71919554,0.0010542364325374365,0.0006360808038152754,0.000917305878829211,0.06885635852813721,0.05795254558324814,354.5119934082031,1000.0,1000.0,1000.0,1000.0,6.279987
71959538,0.0009974914137274027,0.0009801913984119892,0.000998291652649641,0.06876248866319656,0.05784941837191582,354.5106201171875,1000.0,1000.0,1000.0,1000.0,6.319971
71959538,0.00101646245457232,0.0009379400289617479,0.0011014360934495926,0.06876248866319656,0.05784941837191582,354.5106201171875,1000.0,1000.0,1000.0,1000.0,6.319971
71999522,0.001007935730740428,0.0009927809005603194,0.001042824937030673,0.06876248866319656,0.05784941837191582,354.5106201171875,1000.0,1000.0,1000.0,1000.0,6.359955
71999522,0.0012267801212146878,0.0010351564269512892,0.001072380691766739,0.06876248866319656,0.05784941837191582,354.5106201171875,1000.0,1000.0,1000.0,1000.0,6.359955
72039506,0.0011072708293795586,0.0010545392287895083,0.0010384978959336877,0.06895708292722702,0.05779056251049042,354.50927734375,1000.0,1000.0,1000.0,1000.0,6.399939
72039506,0.0010293475352227688,0.001023723860271275,0.0010355254635214806,0.06895708292722702,0.05779056251049042,354.50927734375,1000.0,1000.0,1000.0,1000.0,6.399939
72079490,0.0009617143077775836,0.0010387648362666368,0.0010257167741656303,0.06895708292722702,0.05779056251049042,354.50927734375,1000.0,1000.0,1000.0,1000.0,6.439923
72079490,0.0010503972880542278,0.0008705009240657091,0.0011287479428574443,0.06895708292722702,0.05779056251049042,354.50927734375,1000.0,1000.0,1000.0,1000.0,6.439923
72119474,0.001031791209243238,0.0010084019741043448,0.001026021665893495,0.06895708292722702,0.05779056251049042,354.50927734375,1000.0,1000.0,1000.0,1000.0,6.479907
72119474,0.0010541216470301151,0.0011000371305271983,0.0009869418572634459,0.06895708292722702,0.05779056251049042,354.50927734375,1000.0,1000.0,1000.0,1000.0,6.479907
72159458,0.0009640326607041061,0.0009226432885043323,0.0009545147768221796,0.06883515417575836,0.05776134505867958,354.5079040527344,1000.0,1000.0,1000.0,1000.0,6.519891
72159458,0.0010170035529881716,0.0008201642194762826,0.0008666770299896598,0.06883515417575836,0.05776134505867958,354.5079040527344,1000.0,1000.0,1000.0,1000.0,6.519891
72199442,0.0009754758211784065,0.0009719644440338016,0.001042778487317264,0.06883515417575836,0.05776134505867958,354.5079040527344,1000.0,1000.0,1000.0,1000.0,6.559875
72199442,0.0008986473549157381,0.0009008286288008094,0.0010722101433202624,0.06883515417575836,0.05776134505867958,354.5079040527344,1000.0,1000.0,1000.0,1000.0,6.559875
72239426,0.0009610981796868145,0.0009974351851269603,0.0009447864140383899,0.06884843856096268,0.05769442394375801,354.5062561035156,1000.0,1000.0,1000.0,1000.0,6.599859
72239426,0.0010491901775822043,0.0008682326297275722,0.0008681585895828903,0.06884843856096268,0.05769442394375801,354.5062561035156,1000.0,1000.0,1000.0,1000.0,6.599859
72279410,0.001347805606201291,0.0009018922573886812,0.000920879771001637,0.06884843856096268,0.05769442394375801,354.5062561035156,1000.0,1000.0,1000.0,1000.0,6.639843
72279410,0.0010614596540108323,0.0009723581606522202,0.0010170101886615157,0.06884843856096268,0.05769442394375801,354.5062561035156,1000.0,1000.0,1000.0,1000.0,6.639843
72319394,0.001015031011775136,0.0010882026981562376,0.0010609764140099287,0.06884843856096268,0.05769442394375801,354.5062561035156,1000.0,1000.0,1000.0,1000.0,6.679827
72319394,0.0009906485211104155,0.0009700722293928266,0.0011705607175827026,0.06884843856096268,0.05769442394375801,354.5062561035156,1000.0,1000.0,1000.0,1000.0,6.679827
72359378,0.0009817706886678934,0.000983372563496232,0.0010433645220473409,0.06897719949483871,0.05760424584150314,354.50494384765625,1000.0,1000.0,1000.0,1000.0,6.719811
72359378,0.0010852026753127575,0.0007563644321635365,0.0010120688239112496,0.06897719949483871,0.05760424584150314,354.50494384765625,1000.0,1000.0,1000.0,1000.0,6.719811
72399362,0.0009298617369495332,0.0010128585854545236,0.0009969674283638597,0.06897719949483871,0.05760424584150314,354.50494384765625,1000.0,1000.0,1000.0,1000.0,6.759795
72399362,0.0010820101015269756,0.0011595573741942644,0.0011628791689872742,0.06897719949483871,0.05760424584150314,354.50494384765625,1000.0,1000.0,1000.0,1000.0,6.759795
72439346,0.0009969216771423817,0.0011002186220139265,0.0010143740801140666,0.06903284788131714,0.05770155414938927,354.5036315917969,1000.0,1000.0,1000.0,1000.0,6.799779
72439346,0.0009224881650879979,0.0011314023286104202,0.0010443744249641895,0.06903284788131714,0.05770155414938927,354.5036315917969,1000.0,1000.0,1000.0,1000.0,6.799779
72479330,0.0009874834213405848,0.001129360287450254,0.0008323414367623627,0.06903284788131714,0.05770155414938927,354.5036315917969,1000.0,1000.0,1000.0,1000.0,6.839763
72479330,0.0010204531718045473,0.0009755976498126984,0.0010358745930716395,0.06903284788131714,0.05770155414938927,354.5036315917969,1000.0,1000.0,1000.0,1000.0,6.839763
72519314,0.0010371629614382982,0.0010484217200428247,0.0009973800042644143,0.06903284788131714,0.05770155414938927,354.5036315917969,1000.0,1000.0,1000.0,1000.0,6.879747
72519314,0.0008535860106348991,0.0010262940777465701,0.0012938865693286061,0.06903284788131714,0.05770155414938927,354.5036315917969,1000.0,1000.0,1000.0,1000.0,6.879747
72559298,0.001031485851854086,0.0010229278123006225,0.001015398884192109,0.06879867613315582,0.05745204538106918,354.5023193359375,1000.0,1000.0,1000.0,1000.0,6.919731
72559298,0.0006725278217345476,0.0008899065433070064,0.0009668966522440314,0.06879867613315582,0.05745204538106918,354.5023193359375,1000.0,1000.0,1000.0,1000.0,6.919731
72599282,0.0010091112926602364,0.0009671943262219429,0.0009968187659978867,0.06879867613315582,0.05745204538106918,354.5023193359375,1000.0,1000.0,1000.0,1000.0,6.959715
72599282,0.001209649140946567,0.0009772845078259706,0.0009006500476971269,0.06879867613315582,0.05745204538106918,354.5023193359375,1000.0,1000.0,1000.0,1000.0,6.959715
72639266,0.0010471034329384565,0.0010525009129196405,0.0010161329992115498,0.06899287551641464,0.05755501985549927,354.5008544921875,1000.0,1000.0,1000.0,1000.0,6.999699
72639266,0.0011732011334970593,0.0009972249390557408,0.0008807230042293668,0.06899287551641464,0.05755501985549927,354.5008544921875,1000.0,1000.0,1000.0,1000.0,6.999699
72679250,0.000996534712612629,0.0010679925326257944,0.0009934757836163044,0.06899287551641464,0.05755501985549927,354.5008544921875,1000.0,1000.0,1000.0,1000.0,7.039683
72679250,0.0010415646247565746,0.001006390666589141,0.0010895057348534465,0.06899287551641464,0.05755501985549927,354.5008544921875,1000.0,1000.0,1000.0,1000.0,7.039683
72719234,0.0009751350153237581,0.001249078894034028,0.0009800016414374113,0.06899287551641464,0.05755501985549927,354.5008544921875,1000.0,1000.0,1000.0,1000.0,7.079667
72719234,0.00105097028426826,0.0009632128640078008,0.0009765058057382703,0.06899287551641464,0.05755501985549927,354.5008544921875,1000.0,1000.0,1000.0,1000.0,7.079667
72759218,0.001040556118823588,0.0010044170776382089,0.0010798434959724545,0.06900233775377274,0.057346753776073456,354.49932861328125,1000.0,1000.0,1000.0,1000.0,7.119651
72759218,0.0009564168285578489,0.001105290139093995,0.0010003901552408934,0.06900233775377274,0.057346753776073456,354.49932861328125,1000.0,1000.0,1000.0,1000.0,7.119651
72799202,0.0009728627046570182,0.001022291136905551,0.0009695314220152795,0.06900233775377274,0.057346753776073456,354.49932861328125,1000.0,1000.0,1000.0,1000.0,7.159635
72799202,0.0013070224085822701,0.0011238185688853264,0.0009517808211967349,0.06900233775377274,0.057346753776073456,354.49932861328125,1000.0,1000.0,1000.0,1000.0,7.159635
72839186,0.0010419990867376328,0.0010651530465111136,0.0010166011052206159,0.06924138218164444,0.0575655922293663,354.4979248046875,1000.0,1000.0,1000.0,1000.0,7.199619
72839186,0.001139504718594253,0.0008825276745483279,0.001128853065893054,0.06924138218164444,0.0575655922293663,354.4979248046875,1000.0,1000.0,1000.0,1000.0,7.199619
72879170,0.0010352471144869924,0.0010122292442247272,0.0010012320708483458,0.06924138218164444,0.0575655922293663,354.4979248046875,1000.0,1000.0,1000.0,1000.0,7.239603
72879170,0.0011168159544467926,0.0010154249612241983,0.0011183306341990829,0.06924138218164444,0.0575655922293663,354.4979248046875,1000.0,1000.0,1000.0,1000.0,7.239603
72919154,0.001109918113797903,0.0010947051923722029,0.0010009233374148607,0.06924138218164444,0.0575655922293663,354.4979248046875,1000.0,1000.0,1000.0,1000.0,7.279587
72919154,0.0010307109914720058,0.00101493950933218,0.0010097285266965628,0.06924138218164444,0.0575655922293663,354.4979248046875,1000.0,1000.0,1000.0,1000.0,7.279587
72959138,0.0010739464778453112,0.0010363266337662935,0.0010056019527837634,0.06924387067556381,0.057444144040346146,354.4966125488281,1000.0,1000.0,1000.0,1000.0,7.319571
72959138,0.0008641727035865188,0.0007571321912109852,0.0011653468245640397,0.06924387067556381,0.057444144040346146,354.4966125488281,1000.0,1000.0,1000.0,1000.0,7.319571
72999122,0.0010813870467245579,0.001063113333657384,0.0009548950474709272,0.06924387067556381,0.057444144040346146,354.4966125488281,1000.0,1000.0,1000.0,1000.0,7.359555
72999122,0.000906852597836405,0.0008956086239777505,0.0010325175244361162,0.06924387067556381,0.057444144040346146,354.4966125488281,1000.0,1000.0,1000.0,1000.0,7.359555
73039106,0.0010512624867260456,0.0011409905273467302,0.0009631866123527288,0.0697193592786789,0.057951949536800385,354.4950256347656,1000.0,1000.0,1000.0,1000.0,7.399539
73039106,0.0011901156976819038,0.000991717097349465,0.0012845122255384922,0.0697193592786789,0.057951949536800385,354.4950256347656,1000.0,1000.0,1000.0,1000.0,7.399539
73079090,0.0009886453626677394,0.0009967648657038808,0.0010523204691708088,0.0697193592786789,0.057951949536800385,354.4950256347656,1000.0,1000.0,1000.0,1000.0,7.439523
73079090,0.001137767918407917,0.0011315166484564543,0.0009983632480725646,0.0697193592786789,0.057951949536800385,354.4950256347656,1000.0,1000.0,1000.0,1000.0,7.439523
73119074,0.001056696637533605,0.001004180870950222,0.0009955745190382004,0.0697193592786789,0.057951949536800385,354.4950256347656,1000.0,1000.0,1000.0,1000.0,7.479507
73119074,0.0013013114221394062,0.0008945455774664879,0.0008041371474973857,0.0697193592786789,0.057951949536800385,354.4950256347656,1000.0,1000.0,1000.0,1000.0,7.479507
73159058,0.0010637552477419376,0.0012368059251457453,0.0010783008765429258,0.06957319378852844,0.057653117924928665,354.4937438964844,1000.0,1000.0,1000.0,1000.0,7.519491
73159058,0.0009800865082070231,0.001020557596348226,0.0011390909785404801,0.06957319378852844,0.057653117924928665,354.4937438964844,1000.0,1000.0,1000.0,1000.0,7.519491
73199042,0.001065974123775959,0.0010233179200440645,0.0010053333826363087,0.06957319378852844,0.057653117924928665,354.4937438964844,1000.0,1000.0,1000.0,1000.0,7.559475
73199042,0.0009112039697356522,0.0012932682875543833,0.0013039003824815154,0.06957319378852844,0.057653117924928665,354.4937438964844,1000.0,1000.0,1000.0,1000.0,7.559475
73239026,0.001044212025590241,0.0010598305379971862,0.001027443096973002,0.0696750357747078,0.05782201886177063,354.492919921875,1000.0,1000.0,1000.0,1000.0,7.599459
73239026,0.0010901917703449726,0.00110929599031806,0.0010004317155107856,0.0696750357747078,0.05782201886177063,354.492919921875,1000.0,1000.0,1000.0,1000.0,7.599459
73279843,0.001017408212646842,0.001031455467455089,0.0010074651800096035,0.0696750357747078,0.05782201886177063,354.492919921875,1000.0,1000.0,1000.0,1000.0,7.640276
73279843,0.0010122117819264531,0.0007482146611437201,0.0010306970216333866,0.0696750357747078,0.05782201886177063,354.492919921875,1000.0,1000.0,1000.0,1000.0,7.640276
73319827,0.0010440832702443004,0.0009795723017305136,0.0009762253612279892,0.0696750357747078,0.05782201886177063,354.492919921875,1000.0,1000.0,1000.0,1000.0,7.68026
73319827,0.0009133987477980554,0.00090963946422562,0.000997054623439908,0.0696750357747078,0.05782201886177063,354.492919921875,1000.0,1000.0,1000.0,1000.0,7.68026
73359811,0.001121781999245286,0.001083099516108632,0.000988611252978444,0.06966964900493622,0.057428326457738876,354.4918518066406,1000.0,1000.0,1000.0,1000.0,7.720244
73359811,0.0010446143569424748,0.0009677051566541195,0.0009972192347049713,0.06966964900493622,0.057428326457738876,354.4918518066406,1000.0,1000.0,1000.0,1000.0,7.720244
73399795,0.0009593294817022979,0.0010620977263897657,0.0010042748181149364,0.06966964900493622,0.057428326457738876,354.4918518066406,1000.0,1000.0,1000.0,1000.0,7.760228
73399795,0.0009008874767459929,0.0011814679019153118,0.0010926444083452225,0.06966964900493622,0.057428326457738876,354.4918518066406,1000.0,1000.0,1000.0,1000.0,7.760228
73439779,0.0010237443493679166,0.001097976928576827,0.0011145840398967266,0.06988143175840378,0.05771324038505554,354.4905090332031,1000.0,1000.0,1000.0,1000.0,7.800212
73439779,0.00086178258061409,0.0011642202734947205,0.0010108939604833722,0.06988143175840378,0.05771324038505554,354.4905090332031,1000.0,1000.0,1000.0,1000.0,7.800212
73479763,0.0010181512916460633,0.0009433584637008607,0.0010271189967170358,0.06988143175840378,0.05771324038505554,354.4905090332031,1000.0,1000.0,1000.0,1000.0,7.840196
73479763,0.0009150368277914822,0.0007629991741850972,0.0009480376029387116,0.06988143175840378,0.05771324038505554,354.4905090332031,1000.0,1000.0,1000.0,1000.0,7.840196
73519747,0.001074051484465599,0.0009934277040883899,0.0010484909871593118,0.06988143175840378,0.05771324038505554,354.4905090332031,1000.0,1000.0,1000.0,1000.0,7.88018
73519747,0.0011663977056741714,0.0012285506818443537,0.0010371133685112,0.06988143175840378,0.05771324038505554,354.4905090332031,1000.0,1000.0,1000.0,1000.0,7.88018
73559731,0.0010186817962676287,0.0014088160824030638,0.000931033689994365,0.06979987025260925,0.057252444326877594,354.4892272949219,1000.0,1000.0,1000.0,1000.0,7.920164
73559731,0.001103352988138795,0.0010132536990568042,0.0010436249431222677,0.06979987025260925,0.057252444326877594,354.4892272949219,1000.0,1000.0,1000.0,1000.0,7.920164
73599715,0.0012787916930392385,0.0010161977261304855,0.001201970735564828,0.06979987025260925,0.057252444326877594,354.4892272949219,1000.0,1000.0,1000.0,1000.0,7.960148
73599715,0.0010181351099163294,0.001036960631608963,0.0010905135422945023,0.06979987025260925,0.057252444326877594,354.4892272949219,1000.0,1000.0,1000.0,1000.0,7.960148
73639699,0.000987103208899498,0.0010247130412608385,0.001061733579263091,0.0700916275382042,0.05749189853668213,354.48797607421875,1000.0,1000.0,1000.0,1000.0,8.000132
73639699,0.0009452843223698437,0.0009832738433033228,0.0011818932835012674,0.0700916275382042,0.05749189853668213,354.48797607421875,1000.0,1000.0,1000.0,1000.0,8.000132
73679683,0.0010185823775827885,0.0010272988583892584,0.0010151120368391275,0.0700916275382042,0.05749189853668213,354.48797607421875,1000.0,1000.0,1000.0,1000.0,8.040116
73679683,0.001228467794135213,0.0009561110055074096,0.0010465107625350356,0.0700916275382042,0.05749189853668213,354.48797607421875,1000.0,1000.0,1000.0,1000.0,8.040116
73719667,0.001085549360141158,0.001040280913002789,0.0010403045453131199,0.0700916275382042,0.05749189853668213,354.48797607421875,1000.0,1000.0,1000.0,1000.0,8.0801
73719667,0.0010609927121549845,0.0009454261744394898,0.0011255389545112848,0.0700916275382042,0.05749189853668213,354.48797607421875,1000.0,1000.0,1000.0,1000.0,8.0801
73759651,0.0009549683891236782,0.0010641447734087706,0.0010386599460616708,0.07004284113645554,0.057326242327690125,354.486572265625,1000.0,1000.0,1000.0,1000.0,8.120084
73759651,0.0009643874363973737,0.00097945355810225,0.0008932233322411776,0.07004284113645554,0.057326242327690125,354.486572265625,1000.0,1000.0,1000.0,1000.0,8.120084
73799635,0.000972545356489718,0.001074105384759605,0.0010008715325966477,0.07004284113645554,0.057326242327690125,354.486572265625,1000.0,1000.0,1000.0,1000.0,8.160068
73799635,0.001211568363942206,0.0009837707038968801,0.0011102394200861454,0.07004284113645554,0.057326242327690125,354.486572265625,1000.0,1000.0,1000.0,1000.0,8.160068
73839619,0.0011054424103349447,0.0012208231491968036,0.0014004496624693274,0.07014866173267365,0.05763090401887894,354.485107421875,1000.0,1000.0,1000.0,1000.0,8.200052
73839619,0.0010627242736518383,0.0011152478400617838,0.0010749702341854572,0.07014866173267365,0.05763090401887894,354.485107421875,1000.0,1000.0,1000.0,1000.0,8.200052
73879603,0.0010436689481139183,0.0009961980395019054,0.0010526676196604967,0.07014866173267365,0.05763090401887894,354.485107421875,1000.0,1000.0,1000.0,1000.0,8.240036
73879603,0.001147872069850564,0.0008573958766646683,0.0010630429023876786,0.07014866173267365,0.05763090401887894,354.485107421875,1000.0,1000.0,1000.0,1000.0,8.240036
73919587,0.0010960971703752875,0.0010226941667497158,0.0010831381659954786,0.07014866173267365,0.05763090401887894,354.485107421875,1000.0,1000.0,1000.0,1000.0,8.28002
73919587,0.0013000962790101767,0.0009414524538442492,0.0008958062971942127,0.07014866173267365,0.05763090401887894,354.485107421875,1000.0,1000.0,1000.0,1000.0,8.28002
73959571,0.001103922724723816,0.0009584637591615319,0.0010402738116681576,0.07010527700185776,0.05729116499423981,354.48394775390625,1000.0,1000.0,1000.0,1000.0,8.320004
73959571,0.0010146303102374077,0.0010921377688646317,0.001117879874072969,0.07010527700185776,0.05729116499423981,354.48394775390625,1000.0,1000.0,1000.0,1000.0,8.320004
73999555,0.0009753777412697673,0.0010393019765615463,0.0011002067476511002,0.07010527700185776,0.05729116499423981,354.48394775390625,1000.0,1000.0,1000.0,1000.0,8.359988
73999555,0.0011473560007289052,0.0008445888524875045,0.0011555457022041082,0.07010527700185776,0.05729116499423981,354.48394775390625,1000.0,1000.0,1000.0,1000.0,8.359988
74039539,0.001228413195349276,0.0008764113881625235,0.0011731120757758617,0.07027764618396759,0.057577863335609436,354.48248291015625,1000.0,1000.0,1000.0,1000.0,8.399972
74039539,0.0009976424043998122,0.0011101464042440057,0.0010883377399295568,0.07027764618396759,0.057577863335609436,354.48248291015625,1000.0,1000.0,1000.0,1000.0,8.399972
74079523,0.0010699259582906961,0.0010790812084451318,0.0010263995500281453,0.07027764618396759,0.057577863335609436,354.48248291015625,1000.0,1000.0,1000.0,1000.0,8.439956
74079523,0.0010314603568986058,0.0008534245425835252,0.0011720105540007353,0.07027764618396759,0.057577863335609436,354.48248291015625,1000.0,1000.0,1000.0,1000.0,8.439956
74119507,0.0010136612690985203,0.001071384409442544,0.0010615362552925944,0.07027764618396759,0.057577863335609436,354.48248291015625,1000.0,1000.0,1000.0,1000.0,8.47994
74119507,0.0010373996337875724,0.00100415397901088,0.001137781422585249,0.07027764618396759,0.057577863335609436,354.48248291015625,1000.0,1000.0,1000.0,1000.0,8.47994
74159491,0.0010614561615511775,0.0010866521624848247,0.0010235121008008718,0.07013559341430664,0.05743533745408058,354.4810485839844,1000.0,1000.0,1000.0,1000.0,8.519924
74159491,0.0012552945408970118,0.001015764195472002,0.0010919268243014812,0.07013559341430664,0.05743533745408058,354.4810485839844,1000.0,1000.0,1000.0,1000.0,8.519924
74199475,0.0009513184777460992,0.0010651309275999665,0.0010356927523389459,0.07013559341430664,0.05743533745408058,354.4810485839844,1000.0,1000.0,1000.0,1000.0,8.559908
74199475,0.0009208056726492941,0.0011417593341320753,0.0009179190965369344,0.07013559341430664,0.05743533745408058,354.4810485839844,1000.0,1000.0,1000.0,1000.0,8.559908
74239459,0.0010775617556646466,0.0010514804162085056,0.000955025025177747,0.07026514410972595,0.057787440717220306,354.479736328125,1000.0,1000.0,1000.0,1000.0,8.599892
74239459,0.0010425851214677095,0.0010578481014817953,0.00104527547955513,0.07026514410972595,0.057787440717220306,354.479736328125,1000.0,1000.0,1000.0,1000.0,8.599892
74279443,0.0010257543763145804,0.001047218218445778,0.0010889536933973432,0.07026514410972595,0.057787440717220306,354.479736328125,1000.0,1000.0,1000.0,1000.0,8.639876
74279443,0.0009646061807870865,0.0011518263490870595,0.0011483690468594432,0.07026514410972595,0.057787440717220306,354.479736328125,1000.0,1000.0,1000.0,1000.0,8.639876
74319427,0.0010309424251317978,0.0010262755677103996,0.0011180532164871693,0.07026514410972595,0.057787440717220306,354.479736328125,1000.0,1000.0,1000.0,1000.0,8.67986
74319427,0.0010077122133225203,0.0009848730405792594,0.0013165525160729885,0.07026514410972595,0.057787440717220306,354.479736328125,1000.0,1000.0,1000.0,1000.0,8.67986
74359411,0.0009780271211639047,0.001027286285534501,0.0010280618444085121,0.07004299759864807,0.05771479383111,354.478759765625,1000.0,1000.0,1000.0,1000.0,8.719844
74359411,0.001121768495067954,0.0011198450811207294,0.0008618287974968553,0.07004299759864807,0.05771479383111,354.478759765625,1000.0,1000.0,1000.0,1000.0,8.719844
74399395,0.0010559718357399106,0.0010224874131381512,0.0010640445398166776,0.07004299759864807,0.05771479383111,354.478759765625,1000.0,1000.0,1000.0,1000.0,8.759828
74399395,0.0012231406290084124,0.0010656715603545308,0.001197293633595109,0.07004299759864807,0.05771479383111,354.478759765625,1000.0,1000.0,1000.0,1000.0,8.759828
74439379,0.001065750140696764,0.0009931402746587992,0.0010613413760438561,0.07034696638584137,0.05784565582871437,354.4774475097656,1000.0,1000.0,1000.0,1000.0,8.799812
74439379,0.0009180026245303452,0.0011100061237812042,0.0011302136117592454,0.07034696638584137,0.05784565582871437,354.4774475097656,1000.0,1000.0,1000.0,1000.0,8.799812
74479363,0.0012503727339208126,0.001010352629236877,0.0009486736380495131,0.07034696638584137,0.05784565582871437,354.4774475097656,1000.0,1000.0,1000.0,1000.0,8.839796
74479363,0.0010628171730786562,0.001077961060218513,0.0011189227225258946,0.07034696638584137,0.05784565582871437,354.4774475097656,1000.0,1000.0,1000.0,1000.0,8.839796
74519347,0.001037420704960823,0.0010924981907010078,0.0010239096591249108,0.07034696638584137,0.05784565582871437,354.4774475097656,1000.0,1000.0,1000.0,1000.0,8.87978
74519347,0.0008715420262888074,0.0008411750895902514,0.0008937546517699957,0.07034696638584137,0.05784565582871437,354.4774475097656,1000.0,1000.0,1000.0,1000.0,8.87978
74559331,0.001028008060529828,0.0010485847014933825,0.0010943013476207852,0.07030771672725677,0.05788600444793701,354.4761047363281,1000.0,1000.0,1000.0,1000.0,8.919764
74559331,0.001128543633967638,0.0009494048426859081,0.0010438298340886831,0.07030771672725677,0.05788600444793701,354.4761047363281,1000.0,1000.0,1000.0,1000.0,8.919764
74599315,0.001080706948414445,0.0010803255718201399,0.0009360977564938366,0.07030771672725677,0.05788600444793701,354.4761047363281,1000.0,1000.0,1000.0,1000.0,8.959748
74599315,0.0012464342871680856,0.0010255088564008474,0.0012151647824794054,0.07030771672725677,0.05788600444793701,354.4761047363281,1000.0,1000.0,1000.0,1000.0,8.959748
74639299,0.0010407939553260803,0.0010649054311215878,0.0010731059592217207,0.0705423355102539,0.05813983455300331,354.4748229980469,1000.0,1000.0,1000.0,1000.0,8.999732
74639299,0.0008621145971119404,0.000946652318816632,0.001024473225697875,0.0705423355102539,0.05813983455300331,354.4748229980469,1000.0,1000.0,1000.0,1000.0,8.999732
74679283,0.0012160269543528557,0.0010569009464234114,0.0009551002876833081,0.0705423355102539,0.05813983455300331,354.4748229980469,1000.0,1000.0,1000.0,1000.0,9.039716
74679283,0.0010558005888015032,0.0009911175584420562,0.001038947724737227,0.0705423355102539,0.05813983455300331,354.4748229980469,1000.0,1000.0,1000.0,1000.0,9.039716
74719267,0.0009796101367101073,0.001014356268569827,0.0010465426603332162,0.0705423355102539,0.05813983455300331,354.4748229980469,1000.0,1000.0,1000.0,1000.0,9.0797
74719267,0.0009231840376742184,0.0010676969541236758,0.0010877036256715655,0.0705423355102539,0.05813983455300331,354.4748229980469,1000.0,1000.0,1000.0,1000.0,9.0797
74759251,0.0010647601447999477,0.0010726551990956068,0.0011085127480328083,0.07029213756322861,0.057853519916534424,354.47357177734375,1000.0,1000.0,1000.0,1000.0,9.119684
74759251,0.0012851082719862461,0.0008349535055458546,0.0010037417523562908,0.07029213756322861,0.057853519916534424,354.47357177734375,1000.0,1000.0,1000.0,1000.0,9.119684
74799235,0.0010187175357714295,0.0010419475147500634,0.0010561305098235607,0.07029213756322861,0.057853519916534424,354.47357177734375,1000.0,1000.0,1000.0,1000.0,9.159668
74799235,0.0011872403556481004,0.0010666055604815483,0.0011236302088946104,0.07029213756322861,0.057853519916534424,354.47357177734375,1000.0,1000.0,1000.0,1000.0,9.159668
74839219,0.0010369346709921956,0.0010909594129770994,0.001031398307532072,0.070310577750206,0.05796007439494133,354.4722595214844,1000.0,1000.0,1000.0,1000.0,9.199652
74839219,0.0009959046728909016,0.0012158164754509926,0.0012756332289427519,0.070310577750206,0.05796007439494133,354.4722595214844,1000.0,1000.0,1000.0,1000.0,9.199652
74879203,0.0010147173888981342,0.0010298565030097961,0.0012662896187976003,0.070310577750206,0.05796007439494133,354.4722595214844,1000.0,1000.0,1000.0,1000.0,9.239636
74879203,0.0010311806108802557,0.0010955310426652431,0.0010031369747593999,0.070310577750206,0.05796007439494133,354.4722595214844,1000.0,1000.0,1000.0,1000.0,9.239636
74919187,0.001068150158971548,0.000835245824418962,0.0009611535933800042,0.070310577750206,0.05796007439494133,354.4722595214844,1000.0,1000.0,1000.0,1000.0,9.27962
74919187,0.0010116135235875845,0.0010779104195535183,0.00108909176196903,0.070310577750206,0.05796007439494133,354.4722595214844,1000.0,1000.0,1000.0,1000.0,9.27962
74959171,0.001001256867311895,0.0010622878326103091,0.0011203582398593426,0.07022074609994888,0.058035172522068024,354.4709777832031,1000.0,1000.0,1000.0,1000.0,9.319604
74959171,0.0011802141088992357,0.0009625106467865407,0.001290509244427085,0.07022074609994888,0.058035172522068024,354.4709777832031,1000.0,1000.0,1000.0,1000.0,9.319604
74999155,0.0010904396185651422,0.0010734139941632748,0.0009991382248699665,0.07022074609994888,0.058035172522068024,354.4709777832031,1000.0,1000.0,1000.0,1000.0,9.359588
74999155,0.0011302937055006623,0.0009041576995514333,0.001038336893543601,0.07022074609994888,0.058035172522068024,354.4709777832031,1000.0,1000.0,1000.0,1000.0,9.359588
75039139,0.0010305142495781183,0.0010123737156391144,0.0010426391381770372,0.07049182057380676,0.058172572404146194,354.4696960449219,1000.0,1000.0,1000.0,1000.0,9.399572
75039139,0.0010337872663512826,0.0009627518011257052,0.0012039502616971731,0.07049182057380676,0.058172572404146194,354.4696960449219,1000.0,1000.0,1000.0,1000.0,9.399572
75079123,0.0010699781123548746,0.0011123022995889187,0.0010131492745131254,0.07049182057380676,0.058172572404146194,354.4696960449219,1000.0,1000.0,1000.0,1000.0,9.439556
75079123,0.0007123066461645067,0.0008027846924960613,0.001192779978737235,0.07049182057380676,0.058172572404146194,354.4696960449219,1000.0,1000.0,1000.0,1000.0,9.439556
75119107,0.0010232299100607634,0.0010917390463873744,0.0010140102822333574,0.07049182057380676,0.058172572404146194,354.4696960449219,1000.0,1000.0,1000.0,1000.0,9.47954
75119107,0.0010264043230563402,0.0009392726933583617,0.001291343942284584,0.07049182057380676,0.058172572404146194,354.4696960449219,1000.0,1000.0,1000.0,1000.0,9.47954
75159091,0.00112846156116575,0.0008535232627764344,0.0013432517880573869,0.07029496133327484,0.058117594569921494,354.46832275390625,1000.0,1000.0,1000.0,1000.0,9.519524
75159091,0.001035728259012103,0.0010606548748910427,0.0010682542342692614,0.07029496133327484,0.058117594569921494,354.46832275390625,1000.0,1000.0,1000.0,1000.0,9.519524
75199075,0.001087422831915319,0.001022626762278378,0.0010013591963797808,0.07029496133327484,0.058117594569921494,354.46832275390625,1000.0,1000.0,1000.0,1000.0,9.559508
75199075,0.0013727411860600114,0.000910156115423888,0.0008596950792707503,0.07029496133327484,0.058117594569921494,354.46832275390625,1000.0,1000.0,1000.0,1000.0,9.559508
75239059,0.0010281575378030539,0.0010833697160705924,0.0010865099029615521,0.07056834548711777,0.05831743776798248,354.467041015625,1000.0,1000.0,1000.0,1000.0,9.599492
75239059,0.0011030520545318723,0.0011382976081222296,0.0009967067744582891,0.07056834548711777,0.05831743776798248,354.467041015625,1000.0,1000.0,1000.0,1000.0,9.599492
75279043,0.0010548171121627092,0.0010449924739077687,0.0010852157138288021,0.07056834548711777,0.05831743776798248,354.467041015625,1000.0,1000.0,1000.0,1000.0,9.639476
75279043,0.0009655288304202259,0.0010373329278081656,0.0010108036221936345,0.07056834548711777,0.05831743776798248,354.467041015625,1000.0,1000.0,1000.0,1000.0,9.639476
75319027,0.0010761674493551254,0.0010620325338095427,0.0011077651288360357,0.07056834548711777,0.05831743776798248,354.467041015625,1000.0,1000.0,1000.0,1000.0,9.67946
75319027,0.0009369618492200971,0.000972383248154074,0.0012346694711595774,0.07056834548711777,0.05831743776798248,354.467041015625,1000.0,1000.0,1000.0,1000.0,9.67946
75359844,0.0007903549121692777,0.0009078937582671642,0.0010375849669799209,0.07052575796842575,0.05819763243198395,354.4659729003906,1000.0,1000.0,1000.0,1000.0,9.720277
75359844,0.0010123972315341234,0.0011024160776287317,0.001006430946290493,0.07052575796842575,0.05819763243198395,354.4659729003906,1000.0,1000.0,1000.0,1000.0,9.720277
75399828,0.0010897109750658274,0.00100518052931875,0.0010735644027590752,0.07052575796842575,0.05819763243198395,354.4659729003906,1000.0,1000.0,1000.0,1000.0,9.760261
75399828,0.0012814656365662813,0.0008311726851388812,0.001030677231028676,0.07052575796842575,0.05819763243198395,354.4659729003906,1000.0,1000.0,1000.0,1000.0,9.760261
75439812,0.001058081747032702,0.0011062228586524725,0.0010204132413491607,0.07029251754283905,0.05783066153526306,354.4644775390625,1000.0,1000.0,1000.0,1000.0,9.800245
75439812,0.0010822676122188568,0.0008884769049473107,0.0011120402486994863,0.07029251754283905,0.05783066153526306,354.4644775390625,1000.0,1000.0,1000.0,1000.0,9.800245
75479796,0.0010247325990349054,0.0009820479899644852,0.0011119850678369403,0.07029251754283905,0.05783066153526306,354.4644775390625,1000.0,1000.0,1000.0,1000.0,9.840229
75479796,0.0007911034626886249,0.0012864841846749187,0.0010237953392788768,0.07029251754283905,0.05783066153526306,354.4644775390625,1000.0,1000.0,1000.0,1000.0,9.840229
75519780,0.0010114382021129131,0.0010421102633699775,0.0010414815042167902,0.07029251754283905,0.05783066153526306,354.4644775390625,1000.0,1000.0,1000.0,1000.0,9.880213
75519780,0.001139322528615594,0.001111907185986638,0.00121824792586267,0.07029251754283905,0.05783066153526306,354.4644775390625,1000.0,1000.0,1000.0,1000.0,9.880213
75559764,0.0011027262080460787,0.0010425623040646315,0.000993786146864295,0.07019220292568207,0.057740356773138046,354.4631652832031,1000.0,1000.0,1000.0,1000.0,9.920197
75559764,0.0009109546663239598,0.0011425407137721777,0.0012520966120064259,0.07019220292568207,0.057740356773138046,354.4631652832031,1000.0,1000.0,1000.0,1000.0,9.920197
75599748,0.0010700945276767015,0.001270488603040576,0.0008222541655413806,0.07019220292568207,0.057740356773138046,354.4631652832031,1000.0,1000.0,1000.0,1000.0,9.960181
75599748,0.001036538160406053,0.0010846180375665426,0.0010314884129911661,0.07019220292568207,0.057740356773138046,354.4631652832031,1000.0,1000.0,1000.0,1000.0,9.960181
75639732,0.0010613622143864632,0.0010789417428895831,0.001046063844114542,0.07061483711004257,0.058150626718997955,354.46173095703125,1000.0,1000.0,1000.0,1000.0,10.000165
75639732,0.0011797602055594325,0.0010938850464299321,0.0010036840103566647,0.07061483711004257,0.058150626718997955,354.46173095703125,1000.0,1000.0,1000.0,1000.0,10.000165
75679716,0.0010145616251975298,0.0010287347249686718,0.0010161676909774542,0.07061483711004257,0.058150626718997955,354.46173095703125,1000.0,1000.0,1000.0,1000.0,10.040149
75679716,0.001164293964393437,0.001365221687592566,0.0009571370901539922,0.07061483711004257,0.058150626718997955,354.46173095703125,1000.0,1000.0,1000.0,1000.0,10.040149
75719700,0.0010565968696027994,0.0010645881993696094,0.0010467147221788764,0.07061483711004257,0.058150626718997955,354.46173095703125,1000.0,1000.0,1000.0,1000.0,10.080133
75719700,0.001120125176385045,0.0009241281077265739,0.001252469141036272,0.07061483711004257,0.058150626718997955,354.46173095703125,1000.0,1000.0,1000.0,1000.0,10.080133
75759684,0.0011701949406415224,0.0010507159167900681,0.0009822016581892967,0.07071952521800995,0.05806240066885948,354.4603271484375,1000.0,1000.0,1000.0,1000.0,10.120117
75759684,0.0012687575072050095,0.0009302516118623316,0.0011165165342390537,0.07071952521800995,0.05806240066885948,354.4603271484375,1000.0,1000.0,1000.0,1000.0,10.120117
75799668,0.0011076197260990739,0.0011701309122145176,0.000771254941355437,0.07071952521800995,0.05806240066885948,354.4603271484375,1000.0,1000.0,1000.0,1000.0,10.160101
75799668,0.001096694148145616,0.0010818291921168566,0.0011287408415228128,0.07071952521800995,0.05806240066885948,354.4603271484375,1000.0,1000.0,1000.0,1000.0,10.160101
75839652,0.0011117651592940092,0.001024660188704729,0.0010618938831612468,0.07114113122224808,0.05814186856150627,354.4590759277344,1000.0,1000.0,1000.0,1000.0,10.200085
75839652,0.0010063115041702986,0.0012337600346654654,0.0012016644468531013,0.07114113122224808,0.05814186856150627,354.4590759277344,1000.0,1000.0,1000.0,1000.0,10.200085
75879636,0.0011015930213034153,0.0009752020705491304,0.0010218725074082613,0.07114113122224808,0.05814186856150627,354.4590759277344,1000.0,1000.0,1000.0,1000.0,10.240069
75879636,0.0011743390932679176,0.0009802356362342834,0.0011214565020054579,0.07114113122224808,0.05814186856150627,354.4590759277344,1000.0,1000.0,1000.0,1000.0,10.240069
75919620,0.0010005158837884665,0.0010622296249493957,0.001044481759890914,0.07114113122224808,0.05814186856150627,354.4590759277344,1000.0,1000.0,1000.0,1000.0,10.280053
75919620,0.000874310324434191,0.0010440550977364182,0.00118386116810143,0.07114113122224808,0.05814186856150627,354.4590759277344,1000.0,1000.0,1000.0,1000.0,10.280053
75959604,0.001013836357742548,0.0011026539141312242,0.0010883309878408909,0.07093381136655807,0.05778487026691437,354.457763671875,1000.0,1000.0,1000.0,1000.0,10.320037
75959604,0.0011416421039029956,0.0010016453452408314,0.0009359910618513823,0.07093381136655807,0.05778487026691437,354.457763671875,1000.0,1000.0,1000.0,1000.0,10.320037
75999588,0.0011103125289082527,0.0010118731297552586,0.0009950430830940604,0.07093381136655807,0.05778487026691437,354.457763671875,1000.0,1000.0,1000.0,1000.0,10.360021
75999588,0.0010447311215102673,0.0010480541968718171,0.0010182515252381563,0.07093381136655807,0.05778487026691437,354.457763671875,1000.0,1000.0,1000.0,1000.0,10.360021
76039572,0.0010192005429416895,0.0010824799537658691,0.0010821260511875153,0.0709184780716896,0.05803472548723221,354.4564514160156,1000.0,1000.0,1000.0,1000.0,10.400005
76039572,0.0011033278424292803,0.0012094113044440746,0.0011647766223177314,0.0709184780716896,0.05803472548723221,354.4564514160156,1000.0,1000.0,1000.0,1000.0,10.400005
76079556,0.0010854520369321108,0.0010712535586208105,0.0010736900148913264,0.0709184780716896,0.05803472548723221,354.4564514160156,1000.0,1000.0,1000.0,1000.0,10.439989
76079556,0.0012875262182205915,0.0011159536661580205,0.0010183011181652546,0.0709184780716896,0.05803472548723221,354.4564514160156,1000.0,1000.0,1000.0,1000.0,10.439989
76119540,0.0010527435224503279,0.0010101993102580309,0.001120961271226406,0.0709184780716896,0.05803472548723221,354.4564514160156,1000.0,1000.0,1000.0,1000.0,10.479973
76119540,0.00098876201082021,0.0013631945475935936,0.0008897925727069378,0.0709184780716896,0.05803472548723221,354.4564514160156,1000.0,1000.0,1000.0,1000.0,10.479973
76159524,0.0009634828893467784,0.0010799840092658997,0.0011426525888964534,0.07098008692264557,0.05791953578591347,354.4553527832031,1000.0,1000.0,1000.0,1000.0,10.519957
76159524,0.0012855876702815294,0.0010618357919156551,0.0010062457295134664,0.07098008692264557,0.05791953578591347,354.4553527832031,1000.0,1000.0,1000.0,1000.0,10.519957
76199508,0.0010812121909111738,0.001017322763800621,0.0011085937730967999,0.07098008692264557,0.05791953578591347,354.4553527832031,1000.0,1000.0,1000.0,1000.0,10.559941
76199508,0.0010509261628612876,0.0009360738331452012,0.0010286150500178337,0.07098008692264557,0.05791953578591347,354.4553527832031,1000.0,1000.0,1000.0,1000.0,10.559941
76239492,0.0010214721551164985,0.0011099849361926317,0.0010564529802650213,0.07091806828975677,0.05811326578259468,354.4543151855469,1000.0,1000.0,1000.0,1000.0,10.599925
76239492,0.0010588531149551272,0.0009989755926653743,0.0007625922444276512,0.07091806828975677,0.05811326578259468,354.4543151855469,1000.0,1000.0,1000.0,1000.0,10.599925
76279476,0.0011606980115175247,0.001111755846068263,0.0011515443911775947,0.07091806828975677,0.05811326578259468,354.4543151855469,1000.0,1000.0,1000.0,1000.0,10.639909
76279476,0.0010265393648296595,0.0010491427965462208,0.0011158122215420008,0.07091806828975677,0.05811326578259468,354.4543151855469,1000.0,1000.0,1000.0,1000.0,10.639909
76319460,0.001108428812585771,0.001058549853041768,0.0009973744163289666,0.07091806828975677,0.05811326578259468,354.4543151855469,1000.0,1000.0,1000.0,1000.0,10.679893
76319460,0.0010673378128558397,0.0008781040669418871,0.0012898879358544946,0.07091806828975677,0.05811326578259468,354.4543151855469,1000.0,1000.0,1000.0,1000.0,10.679893
76359444,0.0010568192228674889,0.0010360176675021648,0.00108732795342803,0.07062534242868423,0.05782966688275337,354.4530334472656,1000.0,1000.0,1000.0,1000.0,10.719877
76359444,0.0010181068209931254,0.0009912645909935236,0.0010024929651990533,0.07062534242868423,0.05782966688275337,354.4530334472656,1000.0,1000.0,1000.0,1000.0,10.719877
76399428,0.0010791139211505651,0.0011126697063446045,0.0009772226912900805,0.07062534242868423,0.05782966688275337,354.4530334472656,1000.0,1000.0,1000.0,1000.0,10.759861
76399428,0.001261089346371591,0.0014361913781613111,0.0008494560024701059,0.07062534242868423,0.05782966688275337,354.4530334472656,1000.0,1000.0,1000.0,1000.0,10.759861
76439412,0.0009913104586303234,0.0010666270973160863,0.0010935510508716106,0.07075141370296478,0.05799255892634392,354.45166015625,1000.0,1000.0,1000.0,1000.0,10.799845
76439412,0.0010692826472222805,0.0009103798074647784,0.0010683228028938174,0.07075141370296478,0.05799255892634392,354.45166015625,1000.0,1000.0,1000.0,1000.0,10.799845
76479396,0.0012862656731158495,0.001213215058669448,0.0012098426232114434,0.07075141370296478,0.05799255892634392,354.45166015625,1000.0,1000.0,1000.0,1000.0,10.839829
76479396,0.0011584182502701879,0.0011619715951383114,0.001121321925893426,0.07075141370296478,0.05799255892634392,354.45166015625,1000.0,1000.0,1000.0,1000.0,10.839829
76519380,0.001039309659972787,0.00110239174682647,0.001041917596012354,0.07075141370296478,0.05799255892634392,354.45166015625,1000.0,1000.0,1000.0,1000.0,10.879813
76519380,0.0010021331254392862,0.001223842496983707,0.0011574617819860578,0.07075141370296478,0.05799255892634392,354.45166015625,1000.0,1000.0,1000.0,1000.0,10.879813
76559364,0.0011028964072465897,0.0010899801272898912,0.0011077194940298796,0.07076264917850494,0.05805623158812523,354.450439453125,1000.0,1000.0,1000.0,1000.0,10.919797
76559364,0.001479462836869061,0.0010439176112413406,0.0011756860185414553,0.07076264917850494,0.05805623158812523,354.450439453125,1000.0,1000.0,1000.0,1000.0,10.919797
76599348,0.0010633841156959534,0.0011928301537409425,0.0010444438084959984,0.07076264917850494,0.05805623158812523,354.450439453125,1000.0,1000.0,1000.0,1000.0,10.959781
76599348,0.0011975024826824665,0.001007037004455924,0.0009615760063752532,0.07076264917850494,0.05805623158812523,354.450439453125,1000.0,1000.0,1000.0,1000.0,10.959781
76639332,0.001060762326233089,0.0011019328376278281,0.001167278503999114,0.07102350145578384,0.05852684751152992,354.4494323730469,1000.0,1000.0,1000.0,1000.0,10.999765
76639332,0.0010470343986526132,0.001190960523672402,0.001218387740664184,0.07102350145578384,0.05852684751152992,354.4494323730469,1000.0,1000.0,1000.0,1000.0,10.999765
76679316,0.0013100660871714354,0.0009512087563052773,0.0009400569833815098,0.07102350145578384,0.05852684751152992,354.4494323730469,1000.0,1000.0,1000.0,1000.0,11.039749
76679316,0.001055000931955874,0.001004120334982872,0.0010817900765687227,0.07102350145578384,0.05852684751152992,354.4494323730469,1000.0,1000.0,1000.0,1000.0,11.039749
76719300,0.0009112338302657008,0.0010119716171175241,0.0009072062675841153,0.07102350145578384,0.05852684751152992,354.4494323730469,1000.0,1000.0,1000.0,1000.0,11.079733
76719300,0.0011012288741767406,0.0010323763126507401,0.0010905630188062787,0.07102350145578384,0.05852684751152992,354.4494323730469,1000.0,1000.0,1000.0,1000.0,11.079733
76759284,0.0011319492477923632,0.0011246220674365759,0.001124321948736906,0.07098895311355591,0.05799655243754387,354.44818115234375,1000.0,1000.0,1000.0,1000.0,11.119717
76759284,0.0013192561455070972,0.0010394547134637833,0.0008577810949645936,0.07098895311355591,0.05799655243754387,354.44818115234375,1000.0,1000.0,1000.0,1000.0,11.119717
76799268,0.0010845301439985633,0.0011296813609078526,0.0010904585942626,0.07098895311355591,0.05799655243754387,354.44818115234375,1000.0,1000.0,1000.0,1000.0,11.159701
76799268,0.0009831029456108809,0.0011587269837036729,0.0011228818912059069,0.07098895311355591,0.05799655243754387,354.44818115234375,1000.0,1000.0,1000.0,1000.0,11.159701
76839252,0.0010508093982934952,0.0011331032728776336,0.0010671850759536028,0.07116051018238068,0.058423712849617004,354.4469909667969,1000.0,1000.0,1000.0,1000.0,11.199685
76839252,0.0012110117822885513,0.001189420698210597,0.0011932039633393288,0.07116051018238068,0.058423712849617004,354.4469909667969,1000.0,1000.0,1000.0,1000.0,11.199685
76879236,0.0010837679728865623,0.0011103918077424169,0.00108423363417387,0.07116051018238068,0.058423712849617004,354.4469909667969,1000.0,1000.0,1000.0,1000.0,11.239669
76879236,0.001090881647542119,0.001016535796225071,0.0011335507733747363,0.07116051018238068,0.058423712849617004,354.4469909667969,1000.0,1000.0,1000.0,1000.0,11.239669
76919220,0.0012599878245964646,0.0010497308103367686,0.0010443818755447865,0.07116051018238068,0.058423712849617004,354.4469909667969,1000.0,1000.0,1000.0,1000.0,11.279653
76919220,0.00107248080894351,0.0010816812282428145,0.001120475702919066,0.07116051018238068,0.058423712849617004,354.4469909667969,1000.0,1000.0,1000.0,1000.0,11.279653
76959204,0.0010848804377019405,0.0011332181748002768,0.0011636221315711737,0.07084167003631592,0.05837241932749748,354.4456787109375,1000.0,1000.0,1000.0,1000.0,11.319637
76959204,0.0011672041146084666,0.0010641359258443117,0.0012170342961326241,0.07084167003631592,0.05837241932749748,354.4456787109375,1000.0,1000.0,1000.0,1000.0,11.319637
76999188,0.0010571740567684174,0.0010860695037990808,0.0011645087506622076,0.07084167003631592,0.05837241932749748,354.4456787109375,1000.0,1000.0,1000.0,1000.0,11.359621
76999188,0.0009627838735468686,0.0008757425239309669,0.0009690260631032288,0.07084167003631592,0.05837241932749748,354.4456787109375,1000.0,1000.0,1000.0,1000.0,11.359621
77039172,0.0010877384338527918,0.0010173937771469355,0.0010771015658974648,0.07088647782802582,0.05846651643514633,354.4446716308594,1000.0,1000.0,1000.0,1000.0,11.399605
77039172,0.0012178117176517844,0.0010860930196940899,0.0010891727870330215,0.07088647782802582,0.05846651643514633,354.4446716308594,1000.0,1000.0,1000.0,1000.0,11.399605
77079156,0.0010136398486793041,0.0010878428583964705,0.0010797029826790094,0.07088647782802582,0.05846651643514633,354.4446716308594,1000.0,1000.0,1000.0,1000.0,11.439589
77079156,0.0012310943566262722,0.0010674998629838228,0.001180094201117754,0.07088647782802582,0.05846651643514633,354.4446716308594,1000.0,1000.0,1000.0,1000.0,11.439589
77119140,0.001050350139848888,0.0011099806288257241,0.001041507232002914,0.07088647782802582,0.05846651643514633,354.4446716308594,1000.0,1000.0,1000.0,1000.0,11.479573
77119140,0.0010637504747137427,0.0010749113280326128,0.0011735199950635433,0.07088647782802582,0.05846651643514633,354.4446716308594,1000.0,1000.0,1000.0,1000.0,11.479573
77159124,0.000995397916994989,0.0008603644091635942,0.0011720467591658235,0.07053530216217041,0.058377016335725784,354.4435119628906,1000.0,1000.0,1000.0,1000.0,11.519557
77159124,0.001119836582802236,0.0010799982119351625,0.0010493614245206118,0.07053530216217041,0.058377016335725784,354.4435119628906,1000.0,1000.0,1000.0,1000.0,11.519557
77199108,0.0010450290283188224,0.001067198347300291,0.001089822268113494,0.07053530216217041,0.058377016335725784,354.4435119628906,1000.0,1000.0,1000.0,1000.0,11.559541
77199108,0.0010489987907931209,0.0009357320959679782,0.0010392245603725314,0.07053530216217041,0.058377016335725784,354.4435119628906,1000.0,1000.0,1000.0,1000.0,11.559541
77239092,0.0010331013472750783,0.0010519647039473057,0.0010464629158377647,0.0706711858510971,0.05844553932547569,354.4422607421875,1000.0,1000.0,1000.0,1000.0,11.599525
77239092,0.0011909613385796547,0.0010344081092625856,0.0010602704714983702,0.0706711858510971,0.05844553932547569,354.4422607421875,1000.0,1000.0,1000.0,1000.0,11.599525
77279076,0.001076853135600686,0.001024378463625908,0.0010876033920794725,0.0706711858510971,0.05844553932547569,354.4422607421875,1000.0,1000.0,1000.0,1000.0,11.639509
77279076,0.0010325334733352065,0.0008433318580500782,0.0006862413138151169,0.0706711858510971,0.05844553932547569,354.4422607421875,1000.0,1000.0,1000.0,1000.0,11.639509
77319060,0.0010769637301564217,0.0011155987158417702,0.0011008885921910405,0.0706711858510971,0.05844553932547569,354.4422607421875,1000.0,1000.0,1000.0,1000.0,11.679493
77319060,0.0009646900580264628,0.0009928650688380003,0.0012653333833441138,0.0706711858510971,0.05844553932547569,354.4422607421875,1000.0,1000.0,1000.0,1000.0,11.679493
77359044,0.0011302344501018524,0.0009347933228127658,0.0009931543609127402,0.0704464539885521,0.05827626958489418,354.4413146972656,1000.0,1000.0,1000.0,1000.0,11.719477
77359044,0.0011080042459070683,0.0011090205516666174,0.0011554569937288761,0.0704464539885521,0.05827626958489418,354.4413146972656,1000.0,1000.0,1000.0,1000.0,11.719477
77399028,0.0009929981315508485,0.0010822003241628408,0.0011649695225059986,0.0704464539885521,0.05827626958489418,354.4413146972656,1000.0,1000.0,1000.0,1000.0,11.759461
77399028,0.0010387456277385354,0.0010942664230242372,0.0011548957554623485,0.0704464539885521,0.05827626958489418,354.4413146972656,1000.0,1000.0,1000.0,1000.0,11.759461
77439845,0.0010495185852050781,0.0011560785351321101,0.0010976409539580345,0.07051888108253479,0.058546289801597595,354.4402160644531,1000.0,1000.0,1000.0,1000.0,11.800278
77439845,0.0010943568777292967,0.0012615767773240805,0.000907412264496088,0.07051888108253479,0.058546289801597595,354.4402160644531,1000.0,1000.0,1000.0,1000.0,11.800278
77479829,0.0011371169239282608,0.001082323957234621,0.0011166657786816359,0.07051888108253479,0.058546289801597595,354.4402160644531,1000.0,1000.0,1000.0,1000.0,11.840262
77479829,0.0011885252315551043,0.0009585678344592452,0.0011174045503139496,0.07051888108253479,0.058546289801597595,354.4402160644531,1000.0,1000.0,1000.0,1000.0,11.840262
77519813,0.0010587223805487156,0.001108277472667396,0.0010843235068023205,0.07051888108253479,0.058546289801597595,354.4402160644531,1000.0,1000.0,1000.0,1000.0,11.880246
77519813,0.0012210202403366566,0.0011291751870885491,0.0009857109980657697,0.07051888108253479,0.058546289801597595,354.4402160644531,1000.0,1000.0,1000.0,1000.0,11.880246
77559797,0.0012183109065517783,0.001110220910049975,0.0011073235655203462,0.0703616812825203,0.058283496648073196,354.4395446777344,1000.0,1000.0,1000.0,1000.0,11.92023
77559797,0.0010677450336515903,0.0011174355167895555,0.001042855903506279,0.0703616812825203,0.058283496648073196,354.4395446777344,1000.0,1000.0,1000.0,1000.0,11.92023
77599781,0.0010896980529651046,0.0009389306651428342,0.0008680463070049882,0.0703616812825203,0.058283496648073196,354.4395446777344,1000.0,1000.0,1000.0,1000.0,11.960214
77599781,0.0010441755875945091,0.0010757379932329059,0.0011415899498388171,0.0703616812825203,0.058283496648073196,354.4395446777344,1000.0,1000.0,1000.0,1000.0,11.960214
77639765,0.0011265927460044622,0.0011377205373719335,0.0011115290690213442,0.07051054388284683,0.05839037522673607,354.4388732910156,1000.0,1000.0,1000.0,1000.0,12.000198
77639765,0.001185174798592925,0.0011223484762012959,0.0011513500940054655,0.07051054388284683,0.05839037522673607,354.4388732910156,1000.0,1000.0,1000.0,1000.0,12.000198
77679749,0.0010687405010685325,0.0011113579384982586,0.0011671360116451979,0.07051054388284683,0.05839037522673607,354.4388732910156,1000.0,1000.0,1000.0,1000.0,12.040182
77679749,0.0010928413830697536,0.0010509961284697056,0.0010476193856447935,0.07051054388284683,0.05839037522673607,354.4388732910156,1000.0,1000.0,1000.0,1000.0,12.040182
77719733,0.0010970418807119131,0.001171948155388236,0.0010830223327502608,0.07051054388284683,0.05839037522673607,354.4388732910156,1000.0,1000.0,1000.0,1000.0,12.080166
77719733,0.001254701055586338,0.0012162646744400263,0.0012363542336970568,0.07051054388284683,0.05839037522673607,354.4388732910156,1000.0,1000.0,1000.0,1000.0,12.080166
77759717,0.0010627442970871925,0.0009976698784157634,0.0011239278828725219,0.07023654133081436,0.058272503316402435,354.43798828125,1000.0,1000.0,1000.0,1000.0,12.12015
77759717,0.0012952270917594433,0.0013397239381447434,0.0010785562917590141,0.07023654133081436,0.058272503316402435,354.43798828125,1000.0,1000.0,1000.0,1000.0,12.12015
77799701,0.0010330977384001017,0.000959476048592478,0.0012271845480427146,0.07023654133081436,0.058272503316402435,354.43798828125,1000.0,1000.0,1000.0,1000.0,12.160134
77799701,0.0010754598770290613,0.001027441001497209,0.0009599531767889857,0.07023654133081436,0.058272503316402435,354.43798828125,1000.0,1000.0,1000.0,1000.0,12.160134
77839685,0.001067580422386527,0.0011078842217102647,0.001026351936161518,0.07031364738941193,0.058274783194065094,354.4365539550781,1000.0,1000.0,1000.0,1000.0,12.200118
77839685,0.0013237913371995091,0.0011193201644346118,0.000969679094851017,0.07031364738941193,0.058274783194065094,354.4365539550781,1000.0,1000.0,1000.0,1000.0,12.200118
77879669,0.001159326871857047,0.0011165421456098557,0.001084175892174244,0.07031364738941193,0.058274783194065094,354.4365539550781,1000.0,1000.0,1000.0,1000.0,12.240102
77879669,0.001159287872724235,0.0009691832819953561,0.0010158643126487732,0.07031364738941193,0.058274783194065094,354.4365539550781,1000.0,1000.0,1000.0,1000.0,12.240102
77919653,0.0011122648138552904,0.0010092619340866804,0.0010658595710992813,0.07031364738941193,0.058274783194065094,354.4365539550781,1000.0,1000.0,1000.0,1000.0,12.280086
77919653,0.001038037589751184,0.0008773626759648323,0.0011954840738326311,0.07031364738941193,0.058274783194065094,354.4365539550781,1000.0,1000.0,1000.0,1000.0,12.280086
77959637,0.00110623671207577,0.0011315284064039588,0.0010848678648471832,0.0702948123216629,0.05809855833649635,354.4353332519531,1000.0,1000.0,1000.0,1000.0,12.32007
77959637,0.0010108138667419553,0.0011649425141513348,0.0009171604760922492,0.0702948123216629,0.05809855833649635,354.4353332519531,1000.0,1000.0,1000.0,1000.0,12.32007
77999621,0.0011005394626408815,0.0010713281808421016,0.001093582366593182,0.0702948123216629,0.05809855833649635,354.4353332519531,1000.0,1000.0,1000.0,1000.0,12.360054
77999621,0.0011612734524533153,0.0010449032997712493,0.0012150353286415339,0.0702948123216629,0.05809855833649635,354.4353332519531,1000.0,1000.0,1000.0,1000.0,12.360054
78039605,0.0012518515577539802,0.001007733284495771,0.0011080354452133179,0.0704188346862793,0.058333512395620346,354.43408203125,1000.0,1000.0,1000.0,1000.0,12.400038
78039605,0.0010695592500269413,0.0011326414532959461,0.0010414377320557833,0.0704188346862793,0.058333512395620346,354.43408203125,1000.0,1000.0,1000.0,1000.0,12.400038
78079589,0.0012482490856200457,0.0011138776317238808,0.0011822176165878773,0.0704188346862793,0.058333512395620346,354.43408203125,1000.0,1000.0,1000.0,1000.0,12.440022
78079589,0.001019854680635035,0.0011176560074090958,0.0010334306862205267,0.0704188346862793,0.058333512395620346,354.43408203125,1000.0,1000.0,1000.0,1000.0,12.440022
78119573,0.0010628465097397566,0.001129706623032689,0.0010817338479682803,0.0704188346862793,0.058333512395620346,354.43408203125,1000.0,1000.0,1000.0,1000.0,12.480006
78119573,0.0011837397469207644,0.0011549608316272497,0.0010389774106442928,0.0704188346862793,0.058333512395620346,354.43408203125,1000.0,1000.0,1000.0,1000.0,12.480006
78159557,0.0010719537967815995,0.0011222935281693935,0.001099608140066266,0.07013256847858429,0.05822979286313057,354.43292236328125,1000.0,1000.0,1000.0,1000.0,12.51999
78159557,0.0009481796296313405,0.0011303849751129746,0.000840088352560997,0.07013256847858429,0.05822979286313057,354.43292236328125,1000.0,1000.0,1000.0,1000.0,12.51999
78199541,0.0010885187657549977,0.0010781892342492938,0.001161468680948019,0.07013256847858429,0.05822979286313057,354.43292236328125,1000.0,1000.0,1000.0,1000.0,12.559974
78199541,0.0012305689742788672,0.0011879559606313705,0.0008887819712981582,0.07013256847858429,0.05822979286313057,354.43292236328125,1000.0,1000.0,1000.0,1000.0,12.559974
78239525,0.001068847137503326,0.001141441403888166,0.0011323030339553952,0.07041025161743164,0.05860215425491333,354.4315185546875,1000.0,1000.0,1000.0,1000.0,12.599958
78239525,0.0011341569479554892,0.0010102272499352694,0.0009150495170615613,0.07041025161743164,0.05860215425491333,354.4315185546875,1000.0,1000.0,1000.0,1000.0,12.599958
78279509,0.0012187426909804344,0.001163038657978177,0.0009303164551965892,0.07041025161743164,0.05860215425491333,354.4315185546875,1000.0,1000.0,1000.0,1000.0,12.639942
78279509,0.0010672976495698094,0.001150029245764017,0.0011137952096760273,0.07041025161743164,0.05860215425491333,354.4315185546875,1000.0,1000.0,1000.0,1000.0,12.639942
78319493,0.0011326530948281288,0.0010890370467677712,0.0010545668192207813,0.07041025161743164,0.05860215425491333,354.4315185546875,1000.0,1000.0,1000.0,1000.0,12.679926
78319493,0.0010415524011477828,0.0012138686142861843,0.0010513056768104434,0.07041025161743164,0.05860215425491333,354.4315185546875,1000.0,1000.0,1000.0,1000.0,12.679926
78359477,0.001004655845463276,0.0011110003106296062,0.0010369010269641876,0.07021481543779373,0.05850154161453247,354.43035888671875,1000.0,1000.0,1000.0,1000.0,12.71991
78359477,0.0012505260528996587,0.0012125405482947826,0.0012371474876999855,0.07021481543779373,0.05850154161453247,354.43035888671875,1000.0,1000.0,1000.0,1000.0,12.71991
78399461,0.0010670266347005963,0.0010876047890633345,0.0011653790716081858,0.07021481543779373,0.05850154161453247,354.43035888671875,1000.0,1000.0,1000.0,1000.0,12.759894
78399461,0.0011078102979809046,0.0010269007179886103,0.001085916650481522,0.07021481543779373,0.05850154161453247,354.43035888671875,1000.0,1000.0,1000.0,1000.0,12.759894
78439445,0.0010624295100569725,0.0011417600326240063,0.0010627757292240858,0.07012667506933212,0.058608148247003555,354.4290771484375,1000.0,1000.0,1000.0,1000.0,12.799878
78439445,0.0010556862689554691,0.001126106595620513,0.0010646278969943523,0.07012667506933212,0.058608148247003555,354.4290771484375,1000.0,1000.0,1000.0,1000.0,12.799878
78479429,0.0011621583253145218,0.0011026541469618678,0.0010763596510514617,0.07012667506933212,0.058608148247003555,354.4290771484375,1000.0,1000.0,1000.0,1000.0,12.839862
78479429,0.0010121073573827744,0.0009658624185249209,0.0010025386000052094,0.07012667506933212,0.058608148247003555,354.4290771484375,1000.0,1000.0,1000.0,1000.0,12.839862
78519413,0.000821194495074451,0.0010760357836261392,0.0013138714712113142,0.07012667506933212,0.058608148247003555,354.4290771484375,1000.0,1000.0,1000.0,1000.0,12.879846
78519413,0.0011164071038365364,0.0010992707684636116,0.0010762152960523963,0.07012667506933212,0.058608148247003555,354.4290771484375,1000.0,1000.0,1000.0,1000.0,12.879846
78559397,0.001058852532878518,0.0011662566103041172,0.00107334996573627,0.07023189961910248,0.05842915177345276,354.4280700683594,1000.0,1000.0,1000.0,1000.0,12.91983
78559397,0.0010312697850167751,0.0009446011390537024,0.0012022199807688594,0.07023189961910248,0.05842915177345276,354.4280700683594,1000.0,1000.0,1000.0,1000.0,12.91983
78599381,0.0011149432975798845,0.0010942756198346615,0.0010936233447864652,0.07023189961910248,0.05842915177345276,354.4280700683594,1000.0,1000.0,1000.0,1000.0,12.959814
78599381,0.0011153239756822586,0.0010240686824545264,0.0011340681230649352,0.07023189961910248,0.05842915177345276,354.4280700683594,1000.0,1000.0,1000.0,1000.0,12.959814
78639365,0.0011694671120494604,0.001161461230367422,0.0011835552286356688,0.07039797306060791,0.05868958309292793,354.42706298828125,1000.0,1000.0,1000.0,1000.0,12.999798
78639365,0.001397351617924869,0.0011556546669453382,0.0011058102827519178,0.07039797306060791,0.05868958309292793,354.42706298828125,1000.0,1000.0,1000.0,1000.0,12.999798
78679349,0.0011966272722929716,0.0010412655537948012,0.001145923393778503,0.07039797306060791,0.05868958309292793,354.42706298828125,1000.0,1000.0,1000.0,1000.0,13.039782
78679349,0.0011956467060372233,0.0011741374619305134,0.0009078669245354831,0.07039797306060791,0.05868958309292793,354.42706298828125,1000.0,1000.0,1000.0,1000.0,13.039782
78719333,0.0009790020994842052,0.0010806695790961385,0.0012562992051243782,0.07039797306060791,0.05868958309292793,354.42706298828125,1000.0,1000.0,1000.0,1000.0,13.079766
78719333,0.0010717568220570683,0.001097415923140943,0.0011853084433823824,0.07039797306060791,0.05868958309292793,354.42706298828125,1000.0,1000.0,1000.0,1000.0,13.079766
78759317,0.001032031374052167,0.0011517610400915146,0.001152679556980729,0.07015714049339294,0.05830688774585724,354.4262390136719,1000.0,1000.0,1000.0,1000.0,13.11975
78759317,0.0008479898096993566,0.001052812673151493,0.0011107174213975668,0.07015714049339294,0.05830688774585724,354.4262390136719,1000.0,1000.0,1000.0,1000.0,13.11975
78799301,0.0011106206802651286,0.0011233009863644838,0.001158357597887516,0.07015714049339294,0.05830688774585724,354.4262390136719,1000.0,1000.0,1000.0,1000.0,13.159734
78799301,0.0011937861563637853,0.0010638481471687555,0.001150237862020731,0.07015714049339294,0.05830688774585724,354.4262390136719,1000.0,1000.0,1000.0,1000.0,13.159734
78839285,0.0011409118305891752,0.001131764380261302,0.0010686523746699095,0.07032506167888641,0.05859091877937317,354.4251708984375,1000.0,1000.0,1000.0,1000.0,13.199718
78839285,0.0009724436677061021,0.0010823562042787671,0.0010409171227365732,0.07032506167888641,0.05859091877937317,354.4251708984375,1000.0,1000.0,1000.0,1000.0,13.199718
78879269,0.0011286699445918202,0.0010660127736628056,0.0011073315981775522,0.07032506167888641,0.05859091877937317,354.4251708984375,1000.0,1000.0,1000.0,1000.0,13.239702
78879269,0.0011050562607124448,0.0010710959322750568,0.0011048068990930915,0.07032506167888641,0.05859091877937317,354.4251708984375,1000.0,1000.0,1000.0,1000.0,13.239702
78919253,0.0012651300057768822,0.0008806962287053466,0.0010575616033747792,0.07032506167888641,0.05859091877937317,354.4251708984375,1000.0,1000.0,1000.0,1000.0,13.279686
78919253,0.0010721775470301509,0.001087023178115487,0.0011442839168012142,0.07032506167888641,0.05859091877937317,354.4251708984375,1000.0,1000.0,1000.0,1000.0,13.279686
78959237,0.0009002592414617538,0.001371806487441063,0.0010253953514620662,0.07011041045188904,0.058417703956365585,354.4241638183594,1000.0,1000.0,1000.0,1000.0,13.31967
78959237,0.001043945550918579,0.001132906530983746,0.0011507433373481035,0.07011041045188904,0.058417703956365585,354.4241638183594,1000.0,1000.0,1000.0,1000.0,13.31967
78999221,0.0011207562638446689,0.0010883964132517576,0.001220076810568571,0.07011041045188904,0.058417703956365585,354.4241638183594,1000.0,1000.0,1000.0,1000.0,13.359654
78999221,0.0012967472430318594,0.0011037206277251244,0.0012117314618080854,0.07011041045188904,0.058417703956365585,354.4241638183594,1000.0,1000.0,1000.0,1000.0,13.359654
79039205,0.0010469398694112897,0.001154410419985652,0.0010882399510592222,0.07028845697641373,0.058637090027332306,354.42315673828125,1000.0,1000.0,1000.0,1000.0,13.399638
79039205,0.0011668202932924032,0.0012342947302386165,0.001159935025498271,0.07028845697641373,0.058637090027332306,354.42315673828125,1000.0,1000.0,1000.0,1000.0,13.399638
79079189,0.0010731146903708577,0.0011105651501566172,0.001101911999285221,0.07028845697641373,0.058637090027332306,354.42315673828125,1000.0,1000.0,1000.0,1000.0,13.439622
79079189,0.0011073802597820759,0.0009641123469918966,0.0011058435775339603,0.07028845697641373,0.058637090027332306,354.42315673828125,1000.0,1000.0,1000.0,1000.0,13.439622
79119173,0.0011424104450270534,0.0011850506998598576,0.001143711619079113,0.07028845697641373,0.058637090027332306,354.42315673828125,1000.0,1000.0,1000.0,1000.0,13.479606
79119173,0.0011794369202107191,0.0011675911955535412,0.0012431733775883913,0.07028845697641373,0.058637090027332306,354.42315673828125,1000.0,1000.0,1000.0,1000.0,13.479606
79159157,0.0010516162728890777,0.0011401958763599396,0.00119674950838089,0.0701565146446228,0.058622997254133224,354.4222412109375,1000.0,1000.0,1000.0,1000.0,13.51959
79159157,0.0013227852759882808,0.0012287639547139406,0.0012966038193553686,0.0701565146446228,0.058622997254133224,354.4222412109375,1000.0,1000.0,1000.0,1000.0,13.51959
79199141,0.0010058627231046557,0.0010660776169970632,0.0008051174227148294,0.0701565146446228,0.058622997254133224,354.4222412109375,1000.0,1000.0,1000.0,1000.0,13.559574
79199141,0.0011197833810001612,0.0011223283363506198,0.00106942025013268,0.0701565146446228,0.058622997254133224,354.4222412109375,1000.0,1000.0,1000.0,1000.0,13.559574
79239125,0.0011399242794141173,0.0011011718306690454,0.00116385193541646,0.07031100988388062,0.05883863568305969,354.4212646484375,1000.0,1000.0,1000.0,1000.0,13.599558
79239125,0.0009598350734449923,0.001232582493685186,0.001201640348881483,0.07031100988388062,0.05883863568305969,354.4212646484375,1000.0,1000.0,1000.0,1000.0,13.599558
79279109,0.0010558681096881628,0.0011124385055154562,0.0011545062297955155,0.07031100988388062,0.05883863568305969,354.4212646484375,1000.0,1000.0,1000.0,1000.0,13.639542
79279109,0.001245847437530756,0.0009116555447690189,0.0011776043102145195,0.07031100988388062,0.05883863568305969,354.4212646484375,1000.0,1000.0,1000.0,1000.0,13.639542
79319093,0.0011223210021853447,0.001123489229939878,0.0012089794036000967,0.07031100988388062,0.05883863568305969,354.4212646484375,1000.0,1000.0,1000.0,1000.0,13.679526
79319093,0.001250698696821928,0.0010015900479629636,0.0010595510248094797,0.07031100988388062,0.05883863568305969,354.4212646484375,1000.0,1000.0,1000.0,1000.0,13.679526
79359077,0.0009790024487301707,0.0011147070908918977,0.0011151296785101295,0.07015474140644073,0.05867543816566467,354.4204406738281,1000.0,1000.0,1000.0,1000.0,13.71951
79359077,0.0009071907843463123,0.0009063014294952154,0.0012466924963518977,0.07015474140644073,0.05867543816566467,354.4204406738281,1000.0,1000.0,1000.0,1000.0,13.71951
79399061,0.0011443981202319264,0.0009566711960360408,0.0010720656719058752,0.07015474140644073,0.05867543816566467,354.4204406738281,1000.0,1000.0,1000.0,1000.0,13.759494
79399061,0.0011594241950660944,0.0011342032812535763,0.0011543971486389637,0.07015474140644073,0.05867543816566467,354.4204406738281,1000.0,1000.0,1000.0,1000.0,13.759494
79439045,0.0010801517637446523,0.0011039439123123884,0.0011241616448387504,0.07017616182565689,0.05881693586707115,354.41949462890625,1000.0,1000.0,1000.0,1000.0,13.799478
79439045,0.0009794640354812145,0.0010949720162898302,0.000909846683498472,0.07017616182565689,0.05881693586707115,354.41949462890625,1000.0,1000.0,1000.0,1000.0,13.799478
79479029,0.0010941572254523635,0.0011421936796978116,0.0010885305237025023,0.07017616182565689,0.05881693586707115,354.41949462890625,1000.0,1000.0,1000.0,1000.0,13.839462
79479029,0.0013854766730219126,0.0009722375543788075,0.0013195842038840055,0.07017616182565689,0.05881693586707115,354.41949462890625,1000.0,1000.0,1000.0,1000.0,13.839462
79519846,0.0011619366705417633,0.0011527723399922252,0.0011095128720626235,0.07017616182565689,0.05881693586707115,354.41949462890625,1000.0,1000.0,1000.0,1000.0,13.880279
79519846,0.001145101967267692,0.0010464057559147477,0.0013313463423401117,0.07017616182565689,0.05881693586707115,354.41949462890625,1000.0,1000.0,1000.0,1000.0,13.880279
79559830,0.0010709628695622087,0.0011167285265401006,0.0011879279045388103,0.07006169855594635,0.05862665921449661,354.41851806640625,1000.0,1000.0,1000.0,1000.0,13.920263
79559830,0.0011026132851839066,0.0006097650621086359,0.0011805117828771472,0.07006169855594635,0.05862665921449661,354.41851806640625,1000.0,1000.0,1000.0,1000.0,13.920263
79599814,0.0012769680470228195,0.0011053490452468395,0.0011012428440153599,0.07006169855594635,0.05862665921449661,354.41851806640625,1000.0,1000.0,1000.0,1000.0,13.960247
79599814,0.0010983010288327932,0.0011224839836359024,0.0011702703777700663,0.07006169855594635,0.05862665921449661,354.41851806640625,1000.0,1000.0,1000.0,1000.0,13.960247
79639798,0.0011137713445350528,0.0011263013584539294,0.0012076731072738767,0.07019111514091492,0.058784473687410355,354.4176025390625,1000.0,1000.0,1000.0,1000.0,14.000231
79639798,0.0009353366331197321,0.001206671935506165,0.0009118468733504415,0.07019111514091492,0.058784473687410355,354.4176025390625,1000.0,1000.0,1000.0,1000.0,14.000231
79679782,0.0011752356076613069,0.0010294020175933838,0.0011301825288683176,0.07019111514091492,0.058784473687410355,354.4176025390625,1000.0,1000.0,1000.0,1000.0,14.040215
79679782,0.001032122876495123,0.0010579942027106881,0.00108299870043993,0.07019111514091492,0.058784473687410355,354.4176025390625,1000.0,1000.0,1000.0,1000.0,14.040215
79719766,0.0011560478014871478,0.0011113216169178486,0.0010897436877712607,0.07019111514091492,0.058784473687410355,354.4176025390625,1000.0,1000.0,1000.0,1000.0,14.080199
79719766,0.0011586012551560998,0.0007218986283987761,0.0012586016673594713,0.07019111514091492,0.058784473687410355,354.4176025390625,1000.0,1000.0,1000.0,1000.0,14.080199
